Time (ms),Main Avg Current (mA),Main Avg Power (mW),Main Avg Voltage (V),USB Avg Current (mA),USB Avg Power (mW),USB Avg Voltage (V)
0.00,0,0,0,408.39,1973.3405,4.832
200.00,0,0,0,357.922,1740.2168,4.862
400.00,-0.008,0,0,415.025,2003.7407,4.828
600.00,-0.002,0,0,413.211,1994.1564,4.826
800.00,0,0,0,358.096,1742.4952,4.866
1000.00,0.005,0,0,410.726,1983.8066,4.83
1200.00,0,0,0,357.997,1742.7295,4.868
1400.00,0.002,0,0,411.699,1987.6829,4.828
1600.00,-0.007,0,0,462.482,2223.6135,4.808
1800.00,0.016,0,0,358.664,1744.5416,4.864
2000.00,0.005,0,0,411.938,1988.0128,4.826
2200.00,-0.01,0,0,412.136,1988.9684,4.826
2400.00,-0.002,0,0,357.862,1742.0723,4.868
2600.00,0,0,0,413.962,1997.7808,4.826
2800.00,-0.015,0,0,358.256,1742.5571,4.864
3000.00,-0.01,0,0,407.826,1969.7994,4.83
3200.00,0.02,0,0,416.106,2008.1276,4.826
3400.00,0.001,0,0,358.423,1743.3694,4.864
3600.00,0.001,0,0,411.104,1984.8102,4.828
3800.00,0.004,0,0,406.941,1965.525,4.83
4000.00,-0.02,0,0,360.688,1755.1078,4.866
4200.00,-0.006,0,0,409.989,1979.427,4.828
4400.00,0.011,0,0,357.93,1740.9714,4.864
4600.00,-0.01,0,0,410.063,1980.6042,4.83
4800.00,0.012,0,0,407.878,1970.0507,4.83
5000.00,0.009,0,0,357.862,1741.3566,4.866
5200.00,-0.029,0,0,415.937,2007.3121,4.826
5400.00,-0.003,0,0,412,1989.96,4.83
5600.00,-0.006,0,0,357.554,1739.8578,4.866
5800.00,-0.021,0,0,411.203,1984.4658,4.826
6000.00,0.033,0,0,439.079,2109.3354,4.804
6200.00,0.001,0,0,398.835,1928.766,4.836
6400.00,-0.001,0,0,414.013,1998.0269,4.826
6600.00,0,0,0,358.163,1742.1047,4.864
6800.00,-0.024,0,0,408.883,1975.7225,4.832
7000.00,0,0,0,409.561,1978.1796,4.83
7200.00,0.001,0,0,359.294,1746.8875,4.862
7400.00,-0.002,0,0,409.421,1977.5033,4.83
7600.00,-0.007,0,0,411.284,1984.8567,4.826
7800.00,-0.009,0,0,358.116,1742.5925,4.866
8000.00,-0.001,0,0,409.515,1977.1385,4.828
8200.00,0.006,0,0,409.671,1978.7108,4.83
8400.00,0.007,0,0,357.876,1740.7089,4.864
8600.00,-0.009,0,0,411.275,1986.4581,4.83
8800.00,0.002,0,0,369.706,1798.2499,4.864
9000.00,0,0,0,413.554,1996.6387,4.828
9200.00,-0.004,0,0,411.802,1988.1801,4.828
9400.00,-0.013,0,0,449.85,2160.1797,4.802
9600.00,0.013,0,0,604.497,2837.5088,4.694
9800.00,-0.009,0,0,357.704,1739.1569,4.862
10000.00,0.022,0,0,411.731,1987.8373,4.828
10200.00,0.002,0,0,456.885,2195.7896,4.806
10400.00,0,0,0,358.162,1742.0999,4.864
10600.00,-0.014,0,0,413.854,1997.2595,4.826
10800.00,0,0,0,417.568,2016.0183,4.828
11000.00,-0.003,0,0,359.414,1748.1897,4.864
11200.00,0,0,0,412.681,1992.424,4.828
11400.00,0.006,0,0,358.143,1741.2913,4.862
11600.00,-0.001,0,0,412.602,1992.8676,4.83
11800.00,0.022,0,0,415.236,2003.929,4.826
12000.00,0.003,0,0,357.872,1741.4053,4.866
12200.00,0.006,0,0,407.572,1968.5726,4.83
12400.00,-0.007,0,0,410.854,1982.7815,4.826
12600.00,0,0,0,358.007,1742.7781,4.868
12800.00,-0.003,0,0,411.644,1986.5941,4.826
13000.00,-0.002,0,0,439.364,2109.8259,4.802
13200.00,0.003,0,0,357.87,1742.1112,4.868
13400.00,-0.002,0,0,406.993,1965.7762,4.83
13600.00,-0.002,0,0,358.703,1744.014,4.862
13800.00,0.019,0,0,409.54,1978.0782,4.83
14000.00,0.023,0,0,413.859,1997.2837,4.826
14200.00,0,0,0,358.548,1743.9774,4.864
14400.00,0.009,0,0,451.881,2169.0291,4.8
14600.00,0,0,0,408.701,1974.8431,4.832
14800.00,0.009,0,0,357.696,1739.118,4.862
15000.00,0,0,0,410.7,1983.681,4.83
15200.00,0.018,0,0,360.103,1750.8208,4.862
15400.00,0.019,0,0,414.427,2000.0248,4.826
15600.00,-0.007,0,0,405.887,1961.2458,4.832
15800.00,-0.006,0,0,359.75,1749.824,4.864
16000.00,0.004,0,0,406.101,1960.6558,4.828
16200.00,0.02,0,0,408.886,1974.9193,4.83
16400.00,0.011,0,0,449.746,2159.6804,4.802
16600.00,0.015,0,0,595.811,2793.1619,4.688
16800.00,0.006,0,0,358.652,1743.7661,4.862
17000.00,0.009,0,0,415.764,2003.9825,4.82
17200.00,-0.008,0,0,455.492,2184.5396,4.796
17400.00,-0.008,0,0,358.275,1742.6495,4.864
17600.00,-0.012,0,0,409.018,1976.3749,4.832
17800.00,0.001,0,0,409.594,1975.8813,4.824
18000.00,0.002,0,0,357.739,1740.7581,4.866
18200.00,-0.011,0,0,410.453,1981.6671,4.828
18400.00,0.01,0,0,358.893,1744.9377,4.862
18600.00,0.019,0,0,421.942,2035.4481,4.824
18800.00,0.003,0,0,406.99,1964.9478,4.828
19000.00,-0.012,0,0,357.887,1740.7623,4.864
19200.00,-0.018,0,0,413.694,1996.4873,4.826
19400.00,-0.018,0,0,405.759,1960.6274,4.832
19600.00,-0.024,0,0,359.468,1747.0144,4.86
19800.00,0.023,0,0,410.769,1982.3713,4.826
20000.00,-0.004,0,0,452.161,2169.4685,4.798
20200.00,0,0,0,410.794,1984.135,4.83
20400.00,-0.024,0,0,413.139,1993.809,4.826
20600.00,-0.021,0,0,357.858,1742.0527,4.868
20800.00,0.01,0,0,409.099,1975.13,4.828
21000.00,-0.024,0,0,410.765,1982.3521,4.826
21200.00,0.021,0,0,357.37,1738.2476,4.864
21400.00,-0.002,0,0,407.573,1968.5775,4.83
21600.00,-0.001,0,0,409.341,1976.2983,4.828
21800.00,0.011,0,0,357.445,1739.3275,4.866
22000.00,-0.01,0,0,413.389,1995.0154,4.826
22200.00,0.006,0,0,417.655,2004.744,4.8
22400.00,0.006,0,0,357.884,1741.4636,4.866
22600.00,0.006,0,0,413.105,1994.4711,4.828
22800.00,0.005,0,0,358.568,1743.3575,4.862
23000.00,0.011,0,0,410.082,1981.5161,4.832
23200.00,-0.017,0,0,410.526,1982.0195,4.828
23400.00,0.001,0,0,357.741,1740.0521,4.864
23600.00,0.005,0,0,413.204,1995.7754,4.83
23800.00,-0.005,0,0,434.012,2086.7297,4.808
24000.00,-0.011,0,0,358.149,1742.0366,4.864
24200.00,0,0,0,409.103,1976.7856,4.832
24400.00,0.012,0,0,357.975,1741.9065,4.866
24600.00,0.024,0,0,409.885,1978.1051,4.826
24800.00,-0.011,0,0,408.281,1971.9972,4.83
25000.00,-0.009,0,0,357.968,1741.1562,4.864
25200.00,-0.002,0,0,408.804,1972.8881,4.826
25400.00,-0.007,0,0,452.773,2171.4993,4.796
25600.00,-0.01,0,0,357.868,1740.6699,4.864
25800.00,-0.015,0,0,414.362,1999.7111,4.826
26000.00,-0.005,0,0,451.395,2172.1125,4.812
26200.00,-0.003,0,0,362.977,1765.52,4.864
26400.00,0.016,0,0,411.445,1986.4565,4.828
26600.00,0.009,0,0,756.694,3452.0378,4.562
26800.00,-0.017,0,0,420.408,2027.2074,4.822
27000.00,0.012,0,0,420.174,2026.0791,4.822
27200.00,0.01,0,0,358.004,1741.3314,4.864
27400.00,0,0,0,406.982,1964.9091,4.828
27600.00,-0.004,0,0,409.561,1977.3606,4.828
27800.00,-0.001,0,0,358.991,1746.8502,4.866
28000.00,0,0,0,409.919,1979.9088,4.83
28200.00,-0.003,0,0,411.067,1984.6315,4.828
28400.00,0.014,0,0,357.88,1740.0126,4.862
28600.00,-0.002,0,0,409.47,1977.7401,4.83
28800.00,0,0,0,413.407,1997.5826,4.832
29000.00,-0.002,0,0,358.405,1744.7156,4.868
29200.00,0.011,0,0,409.075,1975.0142,4.828
29400.00,-0.007,0,0,357.825,1739.7452,4.862
29600.00,0.008,0,0,411.26,1984.7408,4.826
29800.00,-0.008,0,0,413.395,1995.0443,4.826
30000.00,-0.011,0,0,449.281,2156.5488,4.8
30200.00,0.011,0,0,576.51,2707.291,4.696
30400.00,0.002,0,0,359.079,1746.5603,4.864
30600.00,-0.017,0,0,417.87,2017.4763,4.828
30800.00,-0.016,0,0,359.528,1747.3062,4.86
31000.00,-0.001,0,0,412.111,1989.6719,4.828
31200.00,0.002,0,0,415.357,2003.6821,4.824
31400.00,-0.002,0,0,357.591,1740.0378,4.866
31600.00,-0.005,0,0,410.396,1983.0333,4.832
31800.00,-0.012,0,0,411.371,1986.0992,4.828
32000.00,-0.007,0,0,357.628,1739.5024,4.864
32200.00,0.011,0,0,410.285,1981.6765,4.83
32400.00,0,0,0,411.704,1988.5304,4.83
32600.00,-0.014,0,0,357.794,1739.5945,4.862
32800.00,0,0,0,410.302,1980.9381,4.828
33000.00,-0.023,0,0,413.629,1996.1736,4.826
33200.00,-0.007,0,0,357.603,1740.8114,4.868
33400.00,-0.008,0,0,417.031,2010.0895,4.82
33600.00,0.009,0,0,399.401,1931.5032,4.836
33800.00,-0.003,0,0,422.889,2039.1708,4.822
34000.00,-0.004,0,0,404.613,1954.2808,4.83
34200.00,-0.01,0,0,357.276,1737.0759,4.862
34400.00,0.039,0,0,409.845,1979.5513,4.83
34600.00,-0.002,0,0,409.031,1976.4377,4.832
34800.00,0.012,0,0,357.448,1738.627,4.864
35000.00,0.005,0,0,409.628,1977.684,4.828
35200.00,-0.022,0,0,357.479,1740.2078,4.868
35400.00,-0.006,0,0,412.441,1992.0901,4.83
35600.00,0.003,0,0,406.057,1961.2554,4.83
35800.00,0.003,0,0,358.929,1745.8306,4.864
36000.00,-0.008,0,0,411.47,1986.5771,4.828
36200.00,-0.002,0,0,416.344,2007.6107,4.822
36400.00,-0.007,0,0,357.973,1741.8966,4.866
36600.00,-0.001,0,0,436.566,2099.8826,4.81
36800.00,-0.003,0,0,413.403,1996.7366,4.83
37000.00,-0.005,0,0,357.913,1740.8888,4.864
37200.00,0,0,0,412.769,1992.0233,4.826
37400.00,-0.001,0,0,411.493,1987.5112,4.83
37600.00,0.008,0,0,357.865,1742.0868,4.868
37800.00,0.017,0,0,409.576,1977.4329,4.828
38000.00,-0.009,0,0,357.606,1739.3955,4.864
38200.00,0,0,0,411.913,1987.8922,4.826
38400.00,-0.002,0,0,407.568,1968.5533,4.83
38600.00,-0.012,0,0,357.907,1740.8596,4.864
38800.00,0.001,0,0,407.848,1969.9058,4.83
39000.00,0.016,0,0,413.957,1996.9285,4.824
39200.00,-0.016,0,0,357.537,1739.0598,4.864
39400.00,0.002,0,0,417.491,2015.6466,4.828
39600.00,-0.007,0,0,409.97,1979.3352,4.828
39800.00,-0.007,0,0,357.68,1741.1862,4.868
40000.00,0.016,0,0,419.272,2023.4067,4.826
40200.00,-0.014,0,0,449.694,2158.5312,4.8
40400.00,-0.001,0,0,602.558,2835.6377,4.706
40600.00,0,0,0,359.222,1746.5372,4.862
40800.00,-0.014,0,0,410.859,1982.8057,4.826
41000.00,-0.003,0,0,407.552,1969.2911,4.832
41200.00,-0.014,0,0,359.111,1747.4342,4.866
41400.00,0,0,0,409.07,1974.99,4.828
41600.00,0.024,0,0,358.753,1745.6921,4.866
41800.00,0.015,0,0,455.634,2184.3096,4.794
42000.00,0,0,0,407.092,1964.6261,4.826
42200.00,0.017,0,0,359.196,1747.8479,4.866
42400.00,-0.006,0,0,412.88,1992.559,4.826
42600.00,-0.009,0,0,416.702,2011.0039,4.826
42800.00,-0.02,0,0,357.813,1741.118,4.866
43000.00,0.002,0,0,417.8,2013.796,4.82
43200.00,0.012,0,0,410.964,1985.778,4.832
43400.00,0.008,0,0,357.393,1737.6448,4.862
43600.00,0,0,0,407.652,1969.7744,4.832
43800.00,-0.009,0,0,450.326,2160.6641,4.798
44000.00,0,0,0,414.353,1998.0101,4.822
44200.00,0.015,0,0,411.774,1988.0448,4.828
44400.00,-0.004,0,0,357.462,1738.6952,4.864
44600.00,-0.007,0,0,451.819,2166.9238,4.796
44800.00,0.012,0,0,410.786,1982.4534,4.826
45000.00,0.01,0,0,362.114,1759.8741,4.86
45200.00,0.003,0,0,411.305,1986.603,4.83
45400.00,-0.023,0,0,411.206,1984.4802,4.826
45600.00,-0.014,0,0,357.672,1740.432,4.866
45800.00,0.009,0,0,410.256,1979.8956,4.826
46000.00,-0.018,0,0,357.77,1740.1931,4.864
46200.00,0.009,0,0,411.971,1988.9961,4.828
46400.00,0,0,0,404.431,1951.7841,4.826
46600.00,0.006,0,0,357.511,1738.9333,4.864
46800.00,0,0,0,407.059,1965.2809,4.828
47000.00,0.008,0,0,408.079,1970.2054,4.828
47200.00,0.011,0,0,358.283,1742.6884,4.864
47400.00,-0.01,0,0,415.393,2003.8558,4.824
47600.00,-0.001,0,0,409.913,1979.0599,4.828
47800.00,-0.015,0,0,357.093,1737.6145,4.866
48000.00,0.003,0,0,407.626,1969.6488,4.832
48200.00,0.002,0,0,415.24,2003.9482,4.826
48400.00,0.022,0,0,357.272,1737.0565,4.862
48600.00,0.004,0,0,410.007,1981.1537,4.832
48800.00,0.019,0,0,357.729,1739.2784,4.862
49000.00,0,0,0,413.57,1995.0616,4.824
49200.00,0,0,0,408.443,1971.146,4.826
49400.00,0,0,0,357.859,1740.6262,4.864
49600.00,0.016,0,0,408.917,1974.2512,4.828
49800.00,-0.007,0,0,412.064,1989.4449,4.828
50000.00,0.012,0,0,357.946,1741.0493,4.864
50200.00,0.012,0,0,412.039,1989.3243,4.828
50400.00,0,0,0,434.238,2093.8958,4.822
50600.00,0,0,0,449.32,2155.8374,4.798
50800.00,-0.001,0,0,449.826,2159.1648,4.8
51000.00,0,0,0,407.93,1970.3019,4.83
51200.00,-0.01,0,0,409.744,1977.4246,4.826
51400.00,0.015,0,0,357.741,1740.0521,4.864
51600.00,0.008,0,0,411.414,1985.484,4.826
51800.00,0,0,0,409.427,1976.7136,4.828
52000.00,-0.007,0,0,357.618,1740.1693,4.866
52200.00,0.024,0,0,410.415,1980.663,4.826
52400.00,-0.006,0,0,405.819,1962.5406,4.836
52600.00,0.015,0,0,357.403,1739.1232,4.866
52800.00,0.024,0,0,454.248,2180.3904,4.8
53000.00,0.008,0,0,514.866,2457.9705,4.774
53200.00,-0.01,0,0,357.345,1738.126,4.864
53400.00,0.016,0,0,413.62,1996.1301,4.826
53600.00,-0.001,0,0,358.252,1742.5377,4.864
53800.00,0.005,0,0,409.022,1974.7583,4.828
54000.00,-0.01,0,0,414.024,1998.9078,4.828
54200.00,-0.01,0,0,358.084,1741.0045,4.862
54400.00,0.02,0,0,412.511,1989.953,4.824
54600.00,-0.015,0,0,411.104,1983.988,4.826
54800.00,-0.004,0,0,358.324,1742.8879,4.864
55000.00,-0.018,0,0,412.079,1987.8691,4.824
55200.00,-0.002,0,0,357.658,1741.0791,4.868
55400.00,0.008,0,0,412.901,1993.4861,4.828
55600.00,-0.017,0,0,407.484,1965.7028,4.824
55800.00,0.01,0,0,357.788,1740.2808,4.864
56000.00,0,0,0,414.859,2001.2798,4.824
56200.00,0.015,0,0,406.64,1963.2581,4.828
56400.00,0.006,0,0,357.832,1741.2106,4.866
56600.00,0.012,0,0,409.836,1979.5078,4.83
56800.00,0.002,0,0,410.589,1980.6813,4.824
57000.00,0.011,0,0,357.153,1737.1923,4.864
57200.00,0.01,0,0,409.355,1975.5474,4.826
57400.00,0.02,0,0,357.301,1737.912,4.864
57600.00,0,0,0,605.868,2839.0972,4.686
57800.00,-0.006,0,0,357.865,1741.3711,4.866
58000.00,0.004,0,0,416.351,2008.4773,4.824
58200.00,-0.01,0,0,409.835,1980.3226,4.832
58400.00,0.003,0,0,357.408,1739.8621,4.868
58600.00,0.001,0,0,415.339,2003.5952,4.824
58800.00,0.022,0,0,409.859,1978.7993,4.828
59000.00,0,0,0,357.964,1740.4209,4.862
59200.00,0.014,0,0,412.241,1988.6505,4.824
59400.00,0.014,0,0,412.854,1990.782,4.822
59600.00,0.02,0,0,385.213,1870.5944,4.856
59800.00,0.024,0,0,412.986,1993.8964,4.828
60000.00,0.003,0,0,358.092,1741.7595,4.864
60200.00,0.017,0,0,411.16,1985.0806,4.828
60400.00,0,0,0,417.853,2015.7228,4.824
60600.00,0,0,0,357.592,1740.0428,4.866
60800.00,-0.003,0,0,414.131,1997.7679,4.824
61000.00,-0.025,0,0,646.421,3016.2004,4.666
61200.00,0.003,0,0,358.74,1745.6289,4.866
61400.00,0.001,0,0,413.287,1993.6964,4.824
61600.00,-0.007,0,0,357.419,1737.7712,4.862
61800.00,0.001,0,0,408.926,1973.4769,4.826
62000.00,0.004,0,0,411.407,1984.6274,4.824
62200.00,0.005,0,0,357.278,1738.5149,4.866
62400.00,0.012,0,0,409.91,1977.4058,4.824
62600.00,-0.005,0,0,412.605,1991.2318,4.826
62800.00,0.015,0,0,357.93,1741.6874,4.866
63000.00,0.002,0,0,413.436,1994.4153,4.824
63200.00,0.012,0,0,409.833,1977.0344,4.824
63400.00,-0.02,0,0,357.824,1741.8872,4.868
63600.00,-0.003,0,0,415.423,2005.6624,4.828
63800.00,-0.001,0,0,408.06,1970.1136,4.828
64000.00,-0.009,0,0,357.417,1738.4762,4.864
64200.00,0.004,0,0,413.515,1996.4506,4.828
64400.00,-0.005,0,0,455.096,2178.9998,4.788
64600.00,-0.001,0,0,408.403,1971.7698,4.828
64800.00,0,0,0,411.549,1986.9586,4.828
65000.00,-0.007,0,0,358.304,1742.074,4.862
65200.00,-0.015,0,0,405.293,1958.3757,4.832
65400.00,0.019,0,0,411.224,1986.2119,4.83
65600.00,0.007,0,0,357.842,1739.8279,4.862
65800.00,-0.01,0,0,419.142,2021.1028,4.822
66000.00,0.012,0,0,481.175,2311.5647,4.804
66200.00,0.005,0,0,413.885,1998.2368,4.828
66400.00,0,0,0,407.666,1967.3961,4.826
66600.00,-0.006,0,0,357.269,1737.7565,4.864
66800.00,-0.018,0,0,412.52,1990.8215,4.826
67000.00,0.01,0,0,408.978,1973.7279,4.826
67200.00,-0.003,0,0,357.867,1739.9493,4.862
67400.00,0.016,0,0,410.874,1985.343,4.832
67600.00,0.006,0,0,406.9,1965.3269,4.83
67800.00,0.004,0,0,449.338,2155.9238,4.798
68000.00,-0.002,0,0,408.863,1974.8083,4.83
68200.00,0.007,0,0,360.218,1751.3799,4.862
68400.00,-0.007,0,0,410.569,1983.0482,4.83
68600.00,-0.012,0,0,424.76,2037.149,4.796
68800.00,-0.02,0,0,357.524,1739.7118,4.866
69000.00,0.004,0,0,409.972,1978.5249,4.826
69200.00,-0.007,0,0,397.828,1924.6918,4.838
69400.00,0,0,0,412.546,1991.7721,4.828
69600.00,0.01,0,0,413.966,1996.9719,4.824
69800.00,-0.005,0,0,357.962,1741.8431,4.866
70000.00,0.005,0,0,408.499,1972.2332,4.828
70200.00,-0.001,0,0,408.474,1972.1125,4.828
70400.00,-0.002,0,0,357.957,1741.1028,4.864
70600.00,-0.009,0,0,407.568,1969.3684,4.832
70800.00,-0.013,0,0,426.43,2046.864,4.8
71000.00,-0.003,0,0,358.641,1744.4297,4.864
71200.00,-0.021,0,0,414.632,2001.014,4.826
71400.00,-0.004,0,0,357.543,1739.0891,4.864
71600.00,-0.012,0,0,412.386,1990.9995,4.828
71800.00,0.003,0,0,408.857,1975.5969,4.832
72000.00,-0.011,0,0,398.033,1924.8876,4.836
72200.00,-0.002,0,0,405.882,1961.2217,4.832
72400.00,0,0,0,372.167,1809.476,4.862
72600.00,0.005,0,0,412.633,1992.1921,4.828
72800.00,0.004,0,0,407.664,1968.2018,4.828
73000.00,0,0,0,357.598,1740.0719,4.866
73200.00,0,0,0,414.172,1997.9657,4.824
73400.00,0.002,0,0,408.829,1974.644,4.83
73600.00,-0.016,0,0,357.226,1738.2618,4.866
73800.00,0.012,0,0,411.466,1985.735,4.826
74000.00,-0.002,0,0,411.651,1987.451,4.828
74200.00,0.002,0,0,358.645,1745.8838,4.868
74400.00,0.01,0,0,419.705,2022.9781,4.82
74600.00,-0.007,0,0,596.221,2801.0464,4.698
74800.00,0,0,0,360.761,1755.463,4.866
75000.00,0.004,0,0,410.985,1983.4136,4.826
75200.00,-0.005,0,0,357.435,1739.2788,4.866
75400.00,0.01,0,0,411.816,1987.4242,4.826
75600.00,0.003,0,0,408.332,1972.2435,4.83
75800.00,0.014,0,0,357.053,1735.9917,4.862
76000.00,-0.021,0,0,411.886,1989.4093,4.83
76200.00,0.012,0,0,409.072,1975.8176,4.83
76400.00,0,0,0,359.218,1748.6732,4.868
76600.00,-0.008,0,0,412.318,1990.6713,4.828
76800.00,0.008,0,0,448.939,2162.0901,4.816
77000.00,0.007,0,0,395.415,1911.4362,4.834
77200.00,0.01,0,0,407.541,1967.6079,4.828
77400.00,-0.008,0,0,359.195,1747.1245,4.864
77600.00,-0.006,0,0,422.959,2039.5084,4.822
77800.00,0.003,0,0,406.373,1963.5942,4.832
78000.00,0.01,0,0,452.687,2170.1816,4.794
78200.00,-0.012,0,0,595.084,2796.8945,4.7
78400.00,0.006,0,0,357.973,1741.1805,4.864
78600.00,0,0,0,408.853,1973.9423,4.828
78800.00,0.009,0,0,412.543,1990.1074,4.824
79000.00,0.008,0,0,367.809,1786.0804,4.856
79200.00,0.003,0,0,444.456,2134.2776,4.802
79400.00,-0.009,0,0,465.015,2226.4919,4.788
79600.00,0.006,0,0,357.418,1739.196,4.866
79800.00,-0.003,0,0,414.748,2001.5739,4.826
80000.00,0,0,0,357.067,1737.488,4.866
80200.00,0,0,0,451.572,2165.7393,4.796
80400.00,-0.006,0,0,414.735,2001.5111,4.826
80600.00,0.015,0,0,366.174,1779.6057,4.86
80800.00,0.009,0,0,417.207,2011.7722,4.822
81000.00,0.007,0,0,409.42,1975.8611,4.826
81200.00,0.015,0,0,357.636,1739.5414,4.864
81400.00,-0.003,0,0,409.358,1975.5618,4.826
81600.00,0.011,0,0,357.438,1738.5784,4.864
81800.00,0.005,0,0,408.844,1974.7164,4.83
82000.00,-0.008,0,0,416.323,2008.342,4.824
82200.00,-0.004,0,0,359.887,1751.2102,4.866
82400.00,-0.009,0,0,409.708,1978.0703,4.828
82600.00,-0.002,0,0,407.104,1965.4982,4.828
82800.00,-0.009,0,0,357.104,1736.9539,4.864
83000.00,-0.011,0,0,406.813,1963.2795,4.826
83200.00,-0.007,0,0,357.437,1738.5736,4.864
83400.00,-0.008,0,0,428.656,2062.6926,4.812
83600.00,-0.008,0,0,417.783,2017.0563,4.828
83800.00,-0.004,0,0,358.98,1739.6172,4.846
84000.00,-0.006,0,0,412.954,1992.9161,4.826
84200.00,0.009,0,0,418.956,2020.2058,4.822
84400.00,0.005,0,0,373.875,1813.2937,4.85
84600.00,-0.009,0,0,411.288,1986.521,4.83
84800.00,0.005,0,0,449.606,2164.4033,4.814
85000.00,-0.019,0,0,371.809,1804.7609,4.854
85200.00,-0.013,0,0,411.024,1983.6018,4.826
85400.00,-0.015,0,0,418.947,2019.3246,4.82
85600.00,-0.009,0,0,358.536,1744.6362,4.866
85800.00,0.017,0,0,409.552,1975.6788,4.824
86000.00,0.01,0,0,357.412,1739.1667,4.866
86200.00,0.007,0,0,412.161,1990.7377,4.83
86400.00,-0.007,0,0,407.41,1966.9756,4.828
86600.00,-0.006,0,0,357.171,1737.2797,4.864
86800.00,-0.009,0,0,409.964,1980.126,4.83
87000.00,0.006,0,0,414.641,2001.8867,4.828
87200.00,0.021,0,0,357.203,1738.1499,4.866
87400.00,-0.004,0,0,413.649,1996.2701,4.826
87600.00,-0.017,0,0,449.832,2159.1936,4.8
87800.00,-0.022,0,0,421.856,2033.3459,4.82
88000.00,0.006,0,0,405.295,1956.7644,4.828
88200.00,-0.001,0,0,357.432,1738.5492,4.864
88400.00,0.005,0,0,456.406,2188.9231,4.796
88600.00,0.003,0,0,407.61,1967.941,4.828
88800.00,-0.006,0,0,358.234,1742.4502,4.864
89000.00,-0.01,0,0,408.931,1974.3188,4.828
89200.00,0.012,0,0,412.591,1991.1643,4.826
89400.00,-0.004,0,0,357.512,1738.9382,4.864
89600.00,-0.005,0,0,417.508,2013.2235,4.822
89800.00,0.002,0,0,406.364,1963.5508,4.832
90000.00,0.003,0,0,358.777,1745.809,4.866
90200.00,-0.004,0,0,410.387,1981.3484,4.828
90400.00,-0.004,0,0,357.321,1738.7241,4.866
90600.00,0.009,0,0,413.25,1994.3446,4.826
90800.00,-0.006,0,0,414.324,1997.8704,4.822
91000.00,0.003,0,0,450.038,2161.0825,4.802
91200.00,0,0,0,411.221,1984.5527,4.826
91400.00,-0.007,0,0,412.493,1992.3412,4.83
91600.00,0.014,0,0,358.851,1745.4513,4.864
91800.00,-0.008,0,0,410.399,1982.2271,4.83
92000.00,0.007,0,0,415.422,2003.1649,4.822
92200.00,-0.002,0,0,357.735,1740.7385,4.866
92400.00,-0.001,0,0,412.665,1993.9972,4.832
92600.00,-0.002,0,0,357.229,1738.2764,4.866
92800.00,0.004,0,0,416.294,2008.2023,4.824
93000.00,-0.001,0,0,411.468,1984.9215,4.824
93200.00,-0.007,0,0,357.791,1741.7266,4.868
93400.00,0,0,0,414.43,1998.3815,4.822
93600.00,0.005,0,0,411.567,1988.6915,4.832
93800.00,0.023,0,0,357.809,1741.0986,4.866
94000.00,0.005,0,0,409.123,1975.2458,4.828
94200.00,-0.005,0,0,415.306,2004.2668,4.826
94400.00,0,0,0,450.627,2162.1084,4.798
94600.00,0.001,0,0,583.605,2746.4451,4.706
94800.00,0.001,0,0,357.772,1740.9186,4.866
95000.00,0.004,0,0,413.171,1994.7896,4.828
95200.00,-0.012,0,0,357.296,1738.6023,4.866
95400.00,0.006,0,0,411.539,1986.0873,4.826
95600.00,0.001,0,0,410.473,1980.1217,4.824
95800.00,0.018,0,0,356.629,1735.3568,4.866
96000.00,-0.024,0,0,412.658,1992.3127,4.828
96200.00,-0.006,0,0,414.089,1998.3936,4.826
96400.00,-0.006,0,0,356.889,1736.6219,4.866
96600.00,-0.007,0,0,454.107,2180.6218,4.802
96800.00,-0.012,0,0,415.837,2006.8295,4.826
97000.00,-0.01,0,0,357.636,1740.972,4.868
97200.00,0.015,0,0,411.715,1988.5834,4.83
97400.00,-0.009,0,0,357.643,1740.2909,4.866
97600.00,0.011,0,0,414.352,1998.0052,4.822
97800.00,-0.004,0,0,404.841,1957.811,4.836
98000.00,-0.002,0,0,449.866,2159.3569,4.8
98200.00,-0.002,0,0,594.588,2796.9419,4.704
98400.00,-0.006,0,0,361.017,1755.2646,4.862
98600.00,0.012,0,0,408.469,1972.9052,4.83
98800.00,-0.013,0,0,415.73,2005.4816,4.824
99000.00,0.002,0,0,357.209,1738.8936,4.868
99200.00,0.018,0,0,410.967,1985.7925,4.832
99400.00,0.013,0,0,449.792,2160.8008,4.804
99600.00,-0.007,0,0,357.543,1740.5193,4.868
99800.00,0.006,0,0,419.063,2021.5598,4.824
100000.00,-0.031,0,0,514.095,2432.6973,4.732
100200.00,-0.018,0,0,361.543,1757.099,4.86
100400.00,-0.004,0,0,408.551,1972.4843,4.828
100600.00,0.006,0,0,357.322,1737.2996,4.862
100800.00,0.01,0,0,409.255,1976.7017,4.83
101000.00,-0.001,0,0,411.414,1985.484,4.826
101200.00,0,0,0,357.445,1740.0424,4.868
101400.00,-0.013,0,0,413.253,1995.1854,4.828
101600.00,0.011,0,0,358.808,1744.5245,4.862
101800.00,0.013,0,0,410.617,1983.2802,4.83
102000.00,0.009,0,0,404.545,1953.9524,4.83
102200.00,0.007,0,0,357.229,1737.5618,4.864
102400.00,-0.006,0,0,414.035,1998.1331,4.826
102600.00,-0.004,0,0,412.978,1994.6837,4.83
102800.00,0.006,0,0,357.197,1737.4061,4.864
103000.00,0.013,0,0,408.733,1973.3629,4.828
103200.00,0.001,0,0,360.566,1753.0719,4.862
103400.00,-0.012,0,0,411.991,1989.9165,4.83
103600.00,0.007,0,0,415.599,2004.8495,4.824
103800.00,0.002,0,0,357.511,1738.9333,4.864
104000.00,-0.017,0,0,415.233,2003.9146,4.826
104200.00,0,0,0,413.345,1994.8031,4.826
104400.00,-0.007,0,0,357.961,1741.1222,4.864
104600.00,-0.01,0,0,412.272,1990.4492,4.828
104800.00,-0.016,0,0,403.744,1952.5059,4.836
105000.00,0,0,0,357.239,1738.3251,4.866
105200.00,0,0,0,414.115,1998.519,4.826
105400.00,-0.021,0,0,410.437,1979.1273,4.822
105600.00,0.014,0,0,357.332,1738.0627,4.864
105800.00,-0.012,0,0,406.348,1962.6608,4.83
106000.00,0,0,0,357.356,1738.8943,4.866
106200.00,0.003,0,0,413.543,1995.7585,4.826
106400.00,0.01,0,0,406.607,1963.9117,4.83
106600.00,0.003,0,0,359.966,1751.5946,4.866
106800.00,0.007,0,0,409.537,1976.4255,4.826
107000.00,0.003,0,0,415.731,2005.4862,4.824
107200.00,0.015,0,0,356.868,1737.2335,4.868
107400.00,0.011,0,0,409.376,1978.1047,4.832
107600.00,0.01,0,0,454.27,2175.9531,4.79
107800.00,-0.028,0,0,356.634,1734.6677,4.864
108000.00,-0.024,0,0,421.252,2031.2772,4.822
108200.00,0.008,0,0,449.437,2156.3987,4.798
108400.00,0.03,0,0,597.652,2806.5737,4.696
108600.00,0.012,0,0,357.732,1740.0084,4.864
108800.00,-0.003,0,0,409.413,1975.8271,4.826
109000.00,0.011,0,0,411.597,1988.0134,4.83
109200.00,0.007,0,0,358.436,1744.1497,4.866
109400.00,-0.015,0,0,412.893,1992.6217,4.826
109600.00,-0.012,0,0,412.363,1989.2391,4.824
109800.00,-0.012,0,0,357.263,1737.7272,4.864
110000.00,-0.002,0,0,411.992,1988.2736,4.826
110200.00,0,0,0,411.548,1986.9537,4.828
110400.00,0.008,0,0,358.157,1741.3594,4.862
110600.00,-0.01,0,0,415.464,2004.1982,4.824
110800.00,0.02,0,0,419.734,2024.7968,4.824
111000.00,0.004,0,0,356.973,1736.3165,4.864
111200.00,-0.002,0,0,411.997,1987.4735,4.824
111400.00,-0.012,0,0,357.159,1737.9358,4.866
111600.00,-0.001,0,0,408.249,1970.2097,4.826
111800.00,0.007,0,0,449.935,2158.7881,4.798
112000.00,-0.003,0,0,414.629,1999.3411,4.822
112200.00,0.022,0,0,407.595,1969.4989,4.832
112400.00,0,0,0,357.215,1736.7793,4.862
112600.00,-0.027,0,0,412.242,1990.3044,4.828
112800.00,0,0,0,404.246,1953.3167,4.832
113000.00,-0.011,0,0,357.659,1739.6533,4.864
113200.00,-0.003,0,0,411.477,1985.7881,4.826
113400.00,0.013,0,0,409.602,1978.3776,4.83
113600.00,0,0,0,357.77,1741.6243,4.868
113800.00,-0.015,0,0,413.6,1995.2064,4.824
114000.00,0.001,0,0,357.388,1739.05,4.866
114200.00,0,0,0,408.158,1971.4031,4.83
114400.00,0.014,0,0,413.403,1994.2561,4.824
114600.00,-0.023,0,0,357.45,1739.3518,4.866
114800.00,-0.007,0,0,410.737,1983.8596,4.83
115000.00,-0.008,0,0,416.838,2010.8265,4.824
115200.00,-0.002,0,0,357.319,1738.7144,4.866
115400.00,-0.002,0,0,409.288,1976.0425,4.828
115600.00,0.021,0,0,406.388,1962.854,4.83
115800.00,0.01,0,0,397.552,1922.5615,4.836
116000.00,0,0,0,413.595,1995.1823,4.824
116200.00,0.006,0,0,427.726,2049.6631,4.792
116400.00,0.021,0,0,415.632,2004.1775,4.822
116600.00,-0.004,0,0,407.351,1968.3199,4.832
116800.00,0.003,0,0,358.616,1744.3081,4.864
117000.00,0.003,0,0,417.458,2012.1477,4.82
117200.00,-0.004,0,0,410.202,1982.0959,4.832
117400.00,-0.016,0,0,358.481,1744.3685,4.866
117600.00,-0.013,0,0,412.665,1992.3467,4.828
117800.00,0.017,0,0,411.333,1985.9158,4.828
118000.00,-0.002,0,0,357.438,1739.2933,4.866
118200.00,0.016,0,0,408.852,1973.9374,4.828
118400.00,-0.003,0,0,358.858,1746.2031,4.866
118600.00,-0.006,0,0,614.136,2883.9827,4.696
118800.00,0.011,0,0,357.562,1738.4666,4.862
119000.00,0.01,0,0,408.782,1974.4171,4.83
119200.00,-0.012,0,0,407.45,1967.9835,4.83
119400.00,-0.003,0,0,357.456,1740.0958,4.868
119600.00,0.002,0,0,408.326,1973.0311,4.832
119800.00,0,0,0,404.483,1953.6528,4.83
120000.00,-0.02,0,0,360.832,1754.3652,4.862
120200.00,-0.012,0,0,408.692,1973.1649,4.828
120400.00,-0.012,0,0,404.147,1952.03,4.83
120600.00,-0.021,0,0,357.166,1738.6841,4.868
120800.00,-0.006,0,0,410.527,1982.8455,4.83
121000.00,0.008,0,0,410.453,1981.6671,4.828
121200.00,0,0,0,357.252,1737.6737,4.864
121400.00,0.013,0,0,408.75,1973.4451,4.828
121600.00,-0.01,0,0,357.196,1736.687,4.862
121800.00,-0.002,0,0,410.758,1979.8536,4.82
122000.00,-0.027,0,0,605.044,2836.4465,4.688
122200.00,0.002,0,0,357.344,1738.8359,4.866
122400.00,-0.006,0,0,414.649,2000.2667,4.824
122600.00,-0.016,0,0,357.585,1740.0087,4.866
122800.00,0,0,0,411.366,1986.8977,4.83
123000.00,0.008,0,0,407.442,1968.7596,4.832
123200.00,-0.003,0,0,357.067,1736.7738,4.864
123400.00,-0.019,0,0,408.173,1972.2919,4.832
123600.00,-0.012,0,0,408.63,1973.6829,4.83
123800.00,-0.006,0,0,356.742,1734.4796,4.862
124000.00,0.008,0,0,449.895,2157.6963,4.796
124200.00,0.008,0,0,411.155,1983.4116,4.824
124400.00,-0.015,0,0,357.174,1737.2943,4.864
124600.00,-0.001,0,0,418.387,2016.6254,4.82
124800.00,0.011,0,0,412.056,1986.9341,4.822
125000.00,0.004,0,0,357.1,1736.2202,4.862
125200.00,-0.013,0,0,414.722,2001.4484,4.826
125400.00,-0.004,0,0,449.299,2156.6353,4.8
125600.00,0,0,0,412.348,1990.8162,4.828
125800.00,0.005,0,0,407.053,1966.066,4.83
126000.00,0.011,0,0,357.242,1739.0541,4.868
126200.00,0.037,0,0,411.669,1988.3613,4.83
126400.00,0,0,0,410.336,1981.1022,4.828
126600.00,-0.001,0,0,357.526,1740.4365,4.868
126800.00,0.013,0,0,407.996,1970.6206,4.83
127000.00,0.012,0,0,385.09,1871.5375,4.86
127200.00,-0.013,0,0,410.501,1982.7198,4.83
127400.00,-0.001,0,0,408.827,1972.9991,4.826
127600.00,0.006,0,0,357.451,1738.6416,4.864
127800.00,-0.002,0,0,409.452,1976.8342,4.828
128000.00,0.03,0,0,410.575,1981.4351,4.826
128200.00,-0.01,0,0,357.075,1736.0988,4.862
128400.00,-0.004,0,0,409.329,1976.2405,4.828
128600.00,-0.003,0,0,408.025,1968.3125,4.824
128800.00,0.025,0,0,449.162,2156.876,4.802
129000.00,0.008,0,0,594.143,2787.719,4.692
129200.00,0.001,0,0,357.327,1738.7532,4.866
129400.00,-0.007,0,0,406.339,1964.2427,4.834
129600.00,-0.016,0,0,357.333,1737.353,4.862
129800.00,0.005,0,0,411.802,1987.3566,4.826
130000.00,0.006,0,0,420.453,2028.2653,4.824
130200.00,-0.013,0,0,357.772,1739.4874,4.862
130400.00,0.002,0,0,411.049,1983.7227,4.826
130600.00,-0.016,0,0,411.51,1985.9474,4.826
130800.00,0.009,0,0,357.573,1739.9503,4.866
131000.00,0.013,0,0,414.114,1997.6859,4.824
131200.00,0.012,0,0,417.725,2013.4346,4.82
131400.00,0.006,0,0,357.044,1736.662,4.864
131600.00,0.012,0,0,414.299,1998.5784,4.824
131800.00,-0.008,0,0,412.579,1989.4561,4.822
132000.00,-0.007,0,0,357.685,1740.4952,4.866
132200.00,0.006,0,0,449.953,2158.8745,4.798
132400.00,-0.002,0,0,357.933,1740.9861,4.864
132600.00,0.006,0,0,416.211,2006.9695,4.822
132800.00,0.012,0,0,405.503,1960.2015,4.834
133000.00,-0.015,0,0,357.988,1740.5377,4.862
133200.00,0.011,0,0,410.588,1980.6765,4.824
133400.00,0.011,0,0,410.119,1978.4139,4.824
133600.00,0,0,0,357.211,1738.9032,4.868
133800.00,-0.006,0,0,412.784,1992.9211,4.828
134000.00,-0.012,0,0,357.643,1738.8602,4.862
134200.00,0.013,0,0,413.85,1996.4124,4.824
134400.00,0.014,0,0,411.407,1986.2731,4.828
134600.00,-0.007,0,0,358.796,1745.9014,4.866
134800.00,0.002,0,0,414.373,2000.5928,4.828
135000.00,-0.012,0,0,451.816,2166.9097,4.796
135200.00,0.008,0,0,357.074,1736.8079,4.864
135400.00,-0.004,0,0,407.993,1971.4221,4.832
135600.00,0,0,0,415.224,2003.0405,4.824
135800.00,-0.009,0,0,357.363,1738.9285,4.866
136000.00,-0.004,0,0,412.773,1992.0426,4.826
136200.00,0,0,0,414.172,1997.9657,4.824
136400.00,-0.004,0,0,357.961,1740.4064,4.862
136600.00,-0.012,0,0,409.631,1977.6986,4.828
136800.00,0.007,0,0,357.64,1739.561,4.864
137000.00,0.003,0,0,410.026,1978.7855,4.826
137200.00,0,0,0,408.278,1971.1663,4.828
137400.00,0.012,0,0,357.226,1738.2618,4.866
137600.00,0.001,0,0,405.378,1957.1649,4.828
137800.00,0.012,0,0,410.055,1978.9255,4.826
138000.00,0.008,0,0,357.103,1736.949,4.864
138200.00,0.008,0,0,409.401,1974.1316,4.822
138400.00,0.009,0,0,417.052,2012.693,4.826
138600.00,0,0,0,358.361,1743.0679,4.864
138800.00,-0.004,0,0,412.227,1990.2319,4.828
139000.00,0,0,0,449.174,2156.0354,4.8
139200.00,0.005,0,0,592.557,2781.4624,4.694
139400.00,0,0,0,357.713,1739.916,4.864
139600.00,-0.008,0,0,417.932,2016.104,4.824
139800.00,0.005,0,0,407.271,1966.3044,4.828
140000.00,0.004,0,0,357.614,1740.1499,4.866
140200.00,0,0,0,415.111,2003.3257,4.826
140400.00,0.002,0,0,484.732,2314.1106,4.774
140600.00,0,0,0,357.287,1737.1293,4.862
140800.00,-0.013,0,0,410.376,1979.6538,4.824
141000.00,-0.005,0,0,358.201,1742.2896,4.864
141200.00,0.001,0,0,414.296,1999.3926,4.826
141400.00,0.006,0,0,411.124,1985.7289,4.83
141600.00,-0.028,0,0,357.591,1740.0378,4.866
141800.00,-0.001,0,0,407.834,1969.0227,4.828
142000.00,-0.009,0,0,410.475,1982.5942,4.83
142200.00,-0.009,0,0,360.454,1751.8065,4.86
142400.00,0.002,0,0,409.791,1977.6514,4.826
142600.00,0.016,0,0,449.248,2157.2888,4.802
142800.00,-0.01,0,0,408.401,1973.3936,4.832
143000.00,0.01,0,0,415.571,2006.3768,4.828
143200.00,0.017,0,0,397.623,1922.1095,4.834
143400.00,-0.006,0,0,410.026,1978.7855,4.826
143600.00,-0.009,0,0,410.302,1980.1176,4.826
143800.00,0.004,0,0,357.757,1740.8456,4.866
144000.00,0.011,0,0,415.065,2004.7639,4.83
144200.00,0.006,0,0,421.642,2032.3145,4.82
144400.00,0.012,0,0,357.135,1737.1046,4.864
144600.00,-0.005,0,0,410.7,1981.2168,4.824
144800.00,-0.01,0,0,358.005,1742.0524,4.866
145000.00,0.008,0,0,414.513,1999.6107,4.824
145200.00,0.014,0,0,408.099,1971.1182,4.83
145400.00,0.009,0,0,357.624,1739.483,4.864
145600.00,-0.005,0,0,407.622,1968.8143,4.83
145800.00,-0.009,0,0,414.57,2001.5441,4.828
146000.00,-0.006,0,0,359.85,1750.3104,4.864
146200.00,-0.007,0,0,409.457,1975.2206,4.824
146400.00,-0.001,0,0,408.025,1971.5767,4.832
146600.00,-0.006,0,0,357.179,1736.6042,4.862
146800.00,0.018,0,0,413.319,1993.0242,4.822
147000.00,0.022,0,0,436.373,2097.2087,4.806
147200.00,0,0,0,359.691,1748.8176,4.862
147400.00,-0.027,0,0,417.733,2014.3086,4.822
147600.00,0.002,0,0,357.736,1740.0278,4.864
147800.00,0.012,0,0,408.793,1973.6526,4.828
148000.00,-0.022,0,0,414.458,1998.5165,4.822
148200.00,0.017,0,0,357.377,1739.7113,4.868
148400.00,-0.004,0,0,405.47,1960.042,4.834
148600.00,0.007,0,0,407.939,1969.5295,4.828
148800.00,0.009,0,0,357.648,1738.8846,4.862
149000.00,0.013,0,0,414.048,1998.1958,4.826
149200.00,-0.021,0,0,360.457,1753.2628,4.864
149400.00,0.012,0,0,588.774,2771.948,4.708
149600.00,-0.013,0,0,449.899,2159.5151,4.8
149800.00,-0.006,0,0,413.303,1995.427,4.828
150000.00,0.005,0,0,406.317,1962.511,4.83
150200.00,-0.005,0,0,357.772,1740.9186,4.866
150400.00,0.014,0,0,413.127,1992.9247,4.824
150600.00,0.005,0,0,410.56,1983.0048,4.83
150800.00,-0.001,0,0,357.37,1739.6771,4.868
151000.00,-0.002,0,0,409.745,1977.4294,4.826
151200.00,0.004,0,0,412.481,1991.4583,4.828
151400.00,0.009,0,0,398.006,1926.3491,4.84
151600.00,-0.006,0,0,411.247,1986.323,4.83
151800.00,0.007,0,0,417.442,2015.4099,4.828
152000.00,0.012,0,0,414.296,1998.5638,4.824
152200.00,0.012,0,0,419.508,2022.0286,4.82
152400.00,-0.008,0,0,357.258,1739.132,4.868
152600.00,0.001,0,0,406.41,1962.9603,4.83
152800.00,0.007,0,0,411.388,1987.004,4.83
153000.00,0.008,0,0,358.028,1742.1644,4.866
153200.00,0.011,0,0,410.124,1980.0786,4.828
153400.00,-0.011,0,0,415.221,2002.1957,4.822
153600.00,-0.017,0,0,357.931,1740.2605,4.862
153800.00,-0.016,0,0,408.096,1970.2876,4.828
154000.00,-0.012,0,0,359.288,1748.2954,4.866
154200.00,-0.003,0,0,407.854,1969.1191,4.828
154400.00,-0.009,0,0,407.385,1969.2992,4.834
154600.00,-0.015,0,0,357.196,1737.4014,4.864
154800.00,-0.008,0,0,408.138,1968.8577,4.824
155000.00,-0.016,0,0,404.542,1953.9377,4.83
155200.00,0.004,0,0,359.449,1749.079,4.866
155400.00,-0.004,0,0,410.515,1982.7875,4.83
155600.00,-0.009,0,0,409.964,1979.3062,4.828
155800.00,0.007,0,0,360.367,1753.5459,4.866
156000.00,-0.007,0,0,415.772,2005.6841,4.824
156200.00,0.007,0,0,408.244,1971.8185,4.83
156400.00,0,0,0,357.247,1738.364,4.866
156600.00,0,0,0,413.736,1995.8624,4.824
156800.00,-0.021,0,0,357.289,1738.5684,4.866
157000.00,-0.005,0,0,412.09,1988.7465,4.826
157200.00,0.012,0,0,409.992,1979.4414,4.828
157400.00,-0.017,0,0,357.135,1736.3904,4.862
157600.00,-0.02,0,0,408.758,1973.4836,4.828
157800.00,0.012,0,0,413.077,1992.6833,4.824
158000.00,-0.003,0,0,357.074,1737.5222,4.866
158200.00,-0.001,0,0,410.288,1980.0499,4.826
158400.00,-0.016,0,0,412.053,1990.2159,4.83
158600.00,-0.003,0,0,357.858,1740.6212,4.864
158800.00,0.007,0,0,412.061,1987.7822,4.824
159000.00,0.01,0,0,357.37,1738.2476,4.864
159200.00,0.008,0,0,414.188,1998.8713,4.826
159400.00,-0.013,0,0,407.129,1967.2472,4.832
159600.00,0.013,0,0,490.955,2340.8735,4.768
159800.00,0.006,0,0,597.906,2814.9417,4.708
160000.00,0.011,0,0,359.709,1748.1859,4.86
160200.00,0,0,0,413.9,1997.4814,4.826
160400.00,-0.002,0,0,426.932,2056.1045,4.816
160600.00,0.001,0,0,366.442,1780.9081,4.86
160800.00,0.007,0,0,415.166,2001.9304,4.822
161000.00,-0.008,0,0,411.925,1988.7739,4.828
161200.00,-0.013,0,0,357.562,1739.8969,4.866
161400.00,-0.011,0,0,418.355,2018.1445,4.824
161600.00,0,0,0,415.134,2002.6063,4.824
161800.00,-0.006,0,0,357.118,1737.022,4.864
162000.00,-0.002,0,0,407.038,1965.1794,4.828
162200.00,-0.03,0,0,361.881,1758.0179,4.858
162400.00,0.009,0,0,411.789,1987.2938,4.826
162600.00,0.016,0,0,409.605,1977.573,4.828
162800.00,0.008,0,0,358.043,1740.8051,4.862
163000.00,0.004,0,0,418.379,2017.4236,4.822
163200.00,-0.015,0,0,449.899,2160.415,4.802
163400.00,0.017,0,0,409.518,1976.334,4.826
163600.00,0.018,0,0,408.067,1971.7795,4.832
163800.00,0.001,0,0,359.925,1751.395,4.866
164000.00,0.006,0,0,408.01,1969.8723,4.828
164200.00,0.017,0,0,413.933,1999.2964,4.83
164400.00,0.001,0,0,358.03,1741.4579,4.864
164600.00,0.014,0,0,408.639,1972.9092,4.828
164800.00,0.008,0,0,408.923,1975.098,4.83
165000.00,-0.01,0,0,357.245,1737.6396,4.864
165200.00,0.006,0,0,409.224,1974.9152,4.826
165400.00,0.012,0,0,357.899,1741.5365,4.866
165600.00,0,0,0,411.889,1989.4238,4.83
165800.00,0,0,0,406.669,1962.5847,4.826
166000.00,0.002,0,0,365.007,1773.2039,4.858
166200.00,-0.018,0,0,410.815,1982.5933,4.826
166400.00,0.005,0,0,359.17,1747.0029,4.864
166600.00,0.012,0,0,411.581,1985.4667,4.824
166800.00,0.001,0,0,410.198,1981.2563,4.83
167000.00,0.001,0,0,357.196,1736.687,4.862
167200.00,-0.01,0,0,412.617,1989.6392,4.822
167400.00,0.009,0,0,412.168,1989.9471,4.828
167600.00,0.015,0,0,357.388,1739.7648,4.868
167800.00,-0.009,0,0,450.832,2162.1902,4.796
168000.00,0.012,0,0,408.599,1973.5331,4.83
168200.00,0.013,0,0,365.327,1776.2198,4.862
168400.00,0.006,0,0,411.861,1987.6412,4.826
168600.00,0.006,0,0,357.639,1739.556,4.864
168800.00,-0.012,0,0,410.072,1980.6477,4.83
169000.00,-0.012,0,0,407.804,1968.8777,4.828
169200.00,-0.003,0,0,359.664,1750.1251,4.866
169400.00,-0.006,0,0,415.801,2005.824,4.824
169600.00,-0.003,0,0,410.05,1980.5414,4.83
169800.00,-0.001,0,0,365.476,1776.2135,4.86
170000.00,0.007,0,0,413.217,1992.5325,4.822
170200.00,0,0,0,359.942,1750.038,4.862
170400.00,0.017,0,0,411.238,1986.2795,4.83
170600.00,0.003,0,0,506.696,2405.7927,4.748
170800.00,0,0,0,357.34,1738.1017,4.864
171000.00,0.002,0,0,414.788,2002.5964,4.828
171200.00,0.005,0,0,406.594,1963.849,4.83
171400.00,0.001,0,0,372.853,1803.1171,4.836
171600.00,0.002,0,0,415.171,2003.6152,4.826
171800.00,0.003,0,0,410.506,1981.1021,4.826
172000.00,0.003,0,0,358.542,1743.9482,4.864
172200.00,0,0,0,412.904,1991.8488,4.824
172400.00,0.004,0,0,405.557,1958.0293,4.828
172600.00,0.009,0,0,357.098,1736.2104,4.862
172800.00,0,0,0,410.658,1981.8356,4.826
173000.00,0.013,0,0,449.101,2154.7866,4.798
173200.00,0.002,0,0,414.274,1999.2864,4.826
173400.00,0,0,0,411.308,1984.9725,4.826
173600.00,-0.026,0,0,357.179,1737.3185,4.864
173800.00,0.007,0,0,413.986,1997.0684,4.824
174000.00,-0.007,0,0,414.167,1997.1133,4.822
174200.00,0.003,0,0,356.89,1735.913,4.864
174400.00,-0.017,0,0,413.735,1995.0302,4.822
174600.00,-0.012,0,0,410.686,1982.7921,4.828
174800.00,-0.005,0,0,357.47,1740.1639,4.868
175000.00,-0.004,0,0,412.093,1988.7609,4.826
175200.00,-0.024,0,0,357.63,1740.9429,4.868
175400.00,-0.018,0,0,408.474,1972.9294,4.83
175600.00,0.015,0,0,410.078,1978.2162,4.824
175800.00,-0.001,0,0,357.629,1739.5074,4.864
176000.00,-0.008,0,0,408.425,1971.8759,4.828
176200.00,-0.012,0,0,415.57,2006.3721,4.828
176400.00,0,0,0,449.606,2157.2095,4.798
176600.00,0,0,0,596.661,2803.1133,4.698
176800.00,-0.001,0,0,358.006,1740.6252,4.862
177000.00,-0.006,0,0,409.983,1978.578,4.826
177200.00,0.016,0,0,410.378,1980.4843,4.826
177400.00,-0.008,0,0,359.722,1749.6876,4.864
177600.00,-0.01,0,0,410.197,1981.2515,4.83
177800.00,0.017,0,0,377.875,1834.9609,4.856
178000.00,0.014,0,0,407.926,1971.0983,4.832
178200.00,-0.001,0,0,413.69,1996.468,4.826
178400.00,0,0,0,392.278,1904.1176,4.854
178600.00,-0.013,0,0,437.101,2105.9526,4.818
178800.00,-0.01,0,0,450.52,2160.6938,4.796
179000.00,-0.019,0,0,357.839,1740.5288,4.864
179200.00,0.003,0,0,411.411,1984.6466,4.824
179400.00,0.01,0,0,414.131,1997.7679,4.824
179600.00,0.007,0,0,357.314,1737.2606,4.862
179800.00,-0.006,0,0,413.378,1993.3087,4.822
180000.00,-0.009,0,0,358.079,1740.9801,4.862
180200.00,-0.004,0,0,410.428,1980.7257,4.826
180400.00,0.014,0,0,411.041,1983.6838,4.826
180600.00,-0.019,0,0,357.419,1739.2009,4.866
180800.00,-0.007,0,0,415.113,2003.3354,4.826
181000.00,0.019,0,0,413.657,1986.381,4.802
181200.00,-0.014,0,0,357.53,1739.7411,4.866
181400.00,0.006,0,0,407.865,1969.1722,4.828
181600.00,-0.011,0,0,357.883,1740.0271,4.862
181800.00,-0.024,0,0,411.226,1983.7543,4.824
182000.00,0.006,0,0,408.437,1972.7507,4.83
182200.00,-0.012,0,0,358.079,1741.6963,4.864
182400.00,-0.003,0,0,410.354,1982.0098,4.83
182600.00,0.006,0,0,415.673,2005.2065,4.824
182800.00,-0.018,0,0,358.474,1743.6174,4.864
183000.00,0.001,0,0,410.836,1982.6946,4.826
183200.00,-0.003,0,0,588.172,2765.5847,4.702
183400.00,0.02,0,0,358.326,1742.8976,4.864
183600.00,-0.003,0,0,411.613,1986.4445,4.826
183800.00,-0.005,0,0,357.45,1739.3518,4.866
184000.00,0.012,0,0,408.955,1974.4347,4.828
184200.00,0.004,0,0,407.98,1970.5435,4.83
184400.00,0.004,0,0,357.451,1738.6416,4.864
184600.00,-0.012,0,0,411.098,1985.6033,4.83
184800.00,0.004,0,0,415.911,2006.3546,4.824
185000.00,-0.012,0,0,357.673,1740.4369,4.866
185200.00,0.002,0,0,407.556,1968.4955,4.83
185400.00,-0.021,0,0,417.507,2014.8888,4.826
185600.00,0,0,0,358.334,1743.6533,4.866
185800.00,-0.002,0,0,408.218,1971.6929,4.83
186000.00,0.007,0,0,357.625,1740.2034,4.866
186200.00,0.015,0,0,409.88,1976.4414,4.822
186400.00,-0.006,0,0,405.276,1957.483,4.83
186600.00,0.01,0,0,452.236,2171.6372,4.802
186800.00,0.007,0,0,414.199,1999.7528,4.828
187000.00,0.011,0,0,524.892,2500.5857,4.764
187200.00,0.008,0,0,357.18,1738.7522,4.868
187400.00,0.004,0,0,408.258,1971.8861,4.83
187600.00,0.006,0,0,459.823,2202.5522,4.79
187800.00,-0.002,0,0,357.391,1738.3497,4.864
188000.00,-0.012,0,0,413.548,1996.6097,4.828
188200.00,-0.013,0,0,357.614,1739.4344,4.864
188400.00,0.001,0,0,408.706,1974.0499,4.83
188600.00,0.007,0,0,416.444,2008.9258,4.824
188800.00,0.003,0,0,357.016,1735.8118,4.862
189000.00,0.001,0,0,408.52,1972.3346,4.828
189200.00,-0.004,0,0,408.558,1973.3352,4.83
189400.00,-0.014,0,0,360.237,1751.4723,4.862
189600.00,-0.014,0,0,406.644,1963.2773,4.828
189800.00,-0.015,0,0,411.791,1988.9504,4.83
190000.00,0.015,0,0,451.126,2163.6003,4.796
190200.00,-0.006,0,0,357.527,1739.7264,4.866
190400.00,-0.024,0,0,411.142,1984.9937,4.828
190600.00,0.012,0,0,406.328,1961.7516,4.828
190800.00,0.01,0,0,358.187,1742.2216,4.864
191000.00,-0.022,0,0,414.577,1999.9194,4.824
191200.00,0.019,0,0,408.682,1974.7513,4.832
191400.00,0.005,0,0,357.452,1739.3615,4.866
191600.00,0.012,0,0,406.732,1965.3289,4.832
191800.00,0.003,0,0,414.508,1999.5865,4.824
192000.00,0.01,0,0,357.063,1736.0403,4.862
192200.00,-0.002,0,0,410.572,1980.5992,4.824
192400.00,-0.003,0,0,453.568,2172.5906,4.79
192600.00,-0.02,0,0,357.833,1740.4996,4.864
192800.00,0.004,0,0,417.034,2010.1039,4.82
193000.00,-0.014,0,0,357.216,1737.4985,4.864
193200.00,0.001,0,0,411.826,1986.6486,4.824
193400.00,-0.008,0,0,416.294,2009.8674,4.828
193600.00,-0.002,0,0,357.209,1737.4646,4.864
193800.00,0.002,0,0,411.46,1987.3517,4.83
194000.00,-0.001,0,0,448.101,2147.3,4.792
194200.00,-0.002,0,0,357.654,1738.9137,4.862
194400.00,0.011,0,0,407.98,1968.9116,4.826
194600.00,-0.015,0,0,357.308,1739.3754,4.868
194800.00,0.005,0,0,409.56,1976.5366,4.826
195000.00,0.014,0,0,411.53,1986.8668,4.828
195200.00,0.009,0,0,400.497,1936.8035,4.836
195400.00,-0.001,0,0,412.485,1989.8275,4.824
195600.00,0.012,0,0,409.622,1978.4742,4.83
195800.00,0.008,0,0,358.666,1744.5513,4.864
196000.00,0.002,0,0,411.189,1983.5757,4.824
196200.00,0.007,0,0,415.879,2006.2002,4.824
196400.00,-0.022,0,0,357.685,1740.4952,4.866
196600.00,0.014,0,0,407.914,1968.593,4.826
196800.00,-0.002,0,0,450.771,2162.7991,4.798
197000.00,0.012,0,0,589.526,2770.772,4.7
197200.00,0.008,0,0,357.279,1737.0905,4.862
197400.00,-0.005,0,0,413.36,1994.8754,4.826
197600.00,-0.019,0,0,410.817,1984.246,4.83
197800.00,-0.017,0,0,358.409,1744.735,4.868
198000.00,-0.016,0,0,409.275,1975.1613,4.826
198200.00,-0.018,0,0,410.871,1982.0416,4.824
198400.00,0.002,0,0,357.538,1739.7799,4.866
198600.00,-0.017,0,0,409.176,1976.3201,4.83
198800.00,-0.008,0,0,416.178,2008.4752,4.826
199000.00,0,0,0,358.204,1742.3042,4.864
199200.00,-0.003,0,0,409.757,1978.3068,4.828
199400.00,0,0,0,357.432,1739.979,4.868
199600.00,-0.009,0,0,408.277,1970.345,4.826
199800.00,0.006,0,0,407.376,1966.8114,4.828
200000.00,-0.009,0,0,357.555,1738.4324,4.862
200200.00,0.01,0,0,406.084,1961.3857,4.83
200400.00,0,0,0,408.486,1972.9873,4.83
200600.00,0,0,0,357.081,1736.8419,4.864
200800.00,0.001,0,0,409.901,1980.6416,4.832
201000.00,0.013,0,0,357.512,1739.6534,4.866
201200.00,0.009,0,0,412.419,1989.5093,4.824
201400.00,0.007,0,0,415.274,2003.2816,4.824
201600.00,-0.013,0,0,357.617,1739.4491,4.864
201800.00,0.017,0,0,410.609,1982.4203,4.828
202000.00,0.007,0,0,407.783,1968.7762,4.828
202200.00,-0.019,0,0,357.561,1739.1766,4.864
202400.00,0,0,0,413.682,1996.4294,4.826
202600.00,-0.002,0,0,414.064,1998.2729,4.826
202800.00,0.012,0,0,357.259,1737.7078,4.864
203000.00,0.021,0,0,409.009,1976.3314,4.832
203200.00,-0.012,0,0,409.133,1976.1123,4.83
203400.00,0,0,0,398.001,1925.5288,4.838
203600.00,0.003,0,0,409.194,1977.2253,4.832
203800.00,0.01,0,0,450.82,2163.0344,4.798
204000.00,0,0,0,405.697,1959.5165,4.83
204200.00,-0.006,0,0,406.627,1964.8217,4.832
204400.00,-0.006,0,0,356.931,1736.1123,4.864
204600.00,0.008,0,0,408.77,1973.5415,4.828
204800.00,-0.002,0,0,408.647,1973.765,4.83
205000.00,0.008,0,0,358.264,1741.1631,4.86
205200.00,-0.02,0,0,411.082,1983.8818,4.826
205400.00,-0.02,0,0,409.392,1977.3633,4.83
205600.00,0.012,0,0,357.677,1741.1716,4.868
205800.00,-0.018,0,0,411.408,1986.2778,4.828
206000.00,0,0,0,357.517,1739.6777,4.866
206200.00,-0.01,0,0,449.7,2159.4595,4.802
206400.00,0.007,0,0,413.02,1992.4083,4.824
206600.00,-0.007,0,0,357.277,1737.7953,4.864
206800.00,-0.01,0,0,410.515,1980.3243,4.824
207000.00,-0.006,0,0,410.502,1982.7247,4.83
207200.00,0.011,0,0,449.516,2158.5759,4.802
207400.00,0.001,0,0,598.191,2801.9265,4.684
207600.00,-0.021,0,0,357.377,1739.7113,4.868
207800.00,0.007,0,0,407.494,1968.1959,4.83
208000.00,0.006,0,0,412.32,1990.681,4.828
208200.00,0.008,0,0,357.303,1737.9218,4.864
208400.00,0.01,0,0,409.383,1975.6824,4.826
208600.00,0,0,0,357.519,1738.9724,4.864
208800.00,-0.002,0,0,410.205,1979.6493,4.826
209000.00,0.004,0,0,404.96,1954.337,4.826
209200.00,-0.009,0,0,359.667,1750.1396,4.866
209400.00,-0.016,0,0,408.045,1970.8574,4.83
209600.00,0.012,0,0,417.84,2016.496,4.826
209800.00,0.015,0,0,357.81,1740.3878,4.864
210000.00,-0.001,0,0,414.162,1998.7458,4.826
210200.00,0.01,0,0,416.836,2011.6506,4.826
210400.00,-0.014,0,0,357.977,1741.2001,4.864
210600.00,0,0,0,410.759,1981.5013,4.824
210800.00,0.024,0,0,362.199,1761.0116,4.862
211000.00,0.009,0,0,412.828,1991.4822,4.824
211200.00,-0.004,0,0,408.821,1972.9703,4.826
211400.00,-0.009,0,0,357.749,1740.8066,4.866
211600.00,0.011,0,0,455.08,2182.5637,4.796
211800.00,-0.012,0,0,499.329,2396.7793,4.8
212000.00,0.015,0,0,414.306,1999.4408,4.826
212200.00,0.008,0,0,410.159,1980.2477,4.828
212400.00,-0.002,0,0,358.761,1744.2959,4.862
212600.00,0.002,0,0,412.112,1988.0282,4.824
212800.00,-0.001,0,0,410.636,1982.5505,4.828
213000.00,-0.017,0,0,357.145,1737.8676,4.866
213200.00,0.008,0,0,414.005,1997.9883,4.826
213400.00,-0.008,0,0,407.772,1968.7233,4.828
213600.00,-0.012,0,0,358.354,1743.7506,4.866
213800.00,-0.002,0,0,413.005,1993.1622,4.826
214000.00,-0.018,0,0,411.808,1987.3856,4.826
214200.00,-0.001,0,0,356.898,1735.9519,4.864
214400.00,0.02,0,0,451.957,2167.5857,4.796
214600.00,0.001,0,0,357.878,1741.4343,4.866
214800.00,0,0,0,408.678,1973.9148,4.83
215000.00,0,0,0,413.401,1995.0734,4.826
215200.00,0.015,0,0,357.013,1736.5112,4.864
215400.00,0.005,0,0,412.217,1988.5348,4.824
215600.00,0.018,0,0,408.712,1973.2616,4.828
215800.00,-0.007,0,0,358.753,1744.2571,4.862
216000.00,-0.004,0,0,410.558,1982.9951,4.83
216200.00,-0.002,0,0,411.669,1988.3613,4.83
216400.00,0,0,0,360.698,1752.9923,4.86
216600.00,-0.017,0,0,412.916,1993.5583,4.828
216800.00,0.022,0,0,358.081,1740.9897,4.862
217000.00,0.006,0,0,410.378,1979.6633,4.824
217200.00,0.007,0,0,407.268,1967.9189,4.832
217400.00,0.014,0,0,450.549,2163.5364,4.802
217600.00,0.004,0,0,580.913,2733.7766,4.706
217800.00,-0.006,0,0,357.451,1739.3566,4.866
218000.00,0.009,0,0,431.079,2075.2144,4.814
218200.00,0.006,0,0,411.555,1986.9875,4.828
218400.00,0.012,0,0,357.34,1738.1017,4.864
218600.00,-0.001,0,0,409.745,1977.4294,4.826
218800.00,-0.004,0,0,442.844,2128.3083,4.806
219000.00,0.013,0,0,357.204,1738.1548,4.866
219200.00,-0.004,0,0,411.296,1984.9146,4.826
219400.00,-0.022,0,0,357.118,1737.7363,4.866
219600.00,-0.007,0,0,412.332,1990.7389,4.828
219800.00,-0.014,0,0,408.037,1970.0026,4.828
220000.00,0.008,0,0,357.717,1739.9354,4.864
220200.00,0.004,0,0,412.414,1990.3101,4.826
220400.00,-0.001,0,0,417.141,2012.2881,4.824
220600.00,-0.014,0,0,359.457,1746.9611,4.86
220800.00,0,0,0,406.577,1963.7668,4.83
221000.00,0.005,0,0,444.79,2134.1023,4.798
221200.00,0.002,0,0,357.179,1737.3185,4.864
221400.00,0.012,0,0,411.296,1984.9146,4.826
221600.00,-0.003,0,0,357.142,1737.853,4.866
221800.00,0.001,0,0,406.519,1963.4868,4.83
222000.00,-0.013,0,0,412.332,1989.0895,4.824
222200.00,0.014,0,0,357.611,1740.1351,4.866
222400.00,-0.006,0,0,409.37,1976.4384,4.828
222600.00,0.01,0,0,458.673,2198.8784,4.794
222800.00,0.005,0,0,357.167,1737.2603,4.864
223000.00,0.002,0,0,414.006,1997.993,4.826
223200.00,-0.006,0,0,357.562,1739.1815,4.864
223400.00,-0.008,0,0,413.139,1992.9825,4.824
223600.00,-0.006,0,0,413.472,1995.4159,4.826
223800.00,-0.02,0,0,362.079,1761.1522,4.864
224000.00,-0.016,0,0,425.093,2049.7983,4.822
224200.00,-0.002,0,0,419.132,2021.0544,4.822
224400.00,0.001,0,0,449.569,2157.9314,4.8
224600.00,0.003,0,0,407.462,1968.0415,4.83
224800.00,0.016,0,0,411.127,1984.9213,4.828
225000.00,-0.012,0,0,357.049,1737.4005,4.866
225200.00,0.015,0,0,413.501,1995.5559,4.826
225400.00,0.003,0,0,409.322,1976.2065,4.828
225600.00,0.015,0,0,357.936,1741.7167,4.866
225800.00,0.012,0,0,414.505,1998.7432,4.822
226000.00,-0.002,0,0,417.768,2012.8062,4.818
226200.00,-0.006,0,0,414.394,1999.8656,4.826
226400.00,0.009,0,0,409.922,1978.2837,4.826
226600.00,-0.007,0,0,357.721,1739.955,4.864
226800.00,0.014,0,0,412.605,1989.5814,4.822
227000.00,-0.003,0,0,408.947,1974.3961,4.828
227200.00,0.003,0,0,357.876,1740.7089,4.864
227400.00,0.01,0,0,407.593,1967.859,4.828
227600.00,0.01,0,0,406.705,1963.5717,4.828
227800.00,0.004,0,0,453.441,2176.5168,4.8
228000.00,0.013,0,0,362.559,1762.7618,4.862
228200.00,0.007,0,0,411.132,1985.7675,4.83
228400.00,-0.012,0,0,415.328,2002.7117,4.822
228600.00,0.012,0,0,357.943,1741.7506,4.866
228800.00,0.008,0,0,409.392,1975.7258,4.826
229000.00,0.021,0,0,413.106,1992.8232,4.824
229200.00,0.001,0,0,356.907,1736.7096,4.866
229400.00,-0.025,0,0,417.203,2010.084,4.818
229600.00,0.022,0,0,413.279,1994.4845,4.826
229800.00,0.009,0,0,357.129,1736.3612,4.862
230000.00,0,0,0,417.458,2012.1477,4.82
230200.00,0.004,0,0,406.677,1965.0632,4.832
230400.00,0.004,0,0,357.839,1741.2446,4.866
230600.00,-0.015,0,0,410.345,1981.9663,4.83
230800.00,0.016,0,0,399.386,1930.632,4.834
231000.00,-0.001,0,0,412.328,1989.895,4.826
231200.00,-0.008,0,0,407.186,1965.894,4.828
231400.00,0.015,0,0,356.938,1737.5741,4.868
231600.00,0,0,0,409.264,1975.9266,4.828
231800.00,-0.007,0,0,407.61,1968.7562,4.83
232000.00,-0.008,0,0,357.783,1739.5409,4.862
232200.00,-0.002,0,0,412.995,1993.9398,4.828
232400.00,-0.012,0,0,357.264,1737.0176,4.862
232600.00,0.006,0,0,412.317,1989.8419,4.826
232800.00,0.003,0,0,407.035,1965.979,4.83
233000.00,-0.011,0,0,357.839,1739.8131,4.862
233200.00,0.012,0,0,409.955,1978.4429,4.826
233400.00,0.003,0,0,414.854,2001.2556,4.824
233600.00,0.005,0,0,357.148,1736.4536,4.862
233800.00,0.015,0,0,407.462,1968.0415,4.83
234000.00,-0.001,0,0,410.387,1982.1692,4.83
234200.00,0,0,0,359.011,1746.9475,4.866
234400.00,-0.011,0,0,411.362,1985.2332,4.826
234600.00,0.009,0,0,636.474,2968.5146,4.664
234800.00,-0.013,0,0,357.881,1740.7332,4.864
235000.00,0.004,0,0,407.824,1969.7899,4.83
235200.00,-0.014,0,0,357.104,1736.9539,4.864
235400.00,0.012,0,0,408.54,1974.0652,4.832
235600.00,0.008,0,0,406.121,1961.5645,4.83
235800.00,-0.011,0,0,359.739,1749.7705,4.864
236000.00,0.002,0,0,409.4,1976.5833,4.828
236200.00,0,0,0,409.012,1973.892,4.826
236400.00,0.001,0,0,360.333,1752.6597,4.864
236600.00,0.008,0,0,417.758,2015.2645,4.824
236800.00,0.005,0,0,412.575,1989.4368,4.822
237000.00,-0.004,0,0,357.112,1736.2786,4.862
237200.00,-0.006,0,0,419.305,2021.8887,4.822
237400.00,-0.019,0,0,357.155,1737.2019,4.864
237600.00,-0.012,0,0,408.415,1972.6444,4.83
237800.00,0,0,0,410.79,1981.651,4.824
238000.00,-0.023,0,0,449.985,2159.928,4.8
238200.00,0.012,0,0,598.24,2812.9246,4.702
238400.00,-0.006,0,0,358.747,1744.9454,4.864
238600.00,-0.004,0,0,408.128,1971.2582,4.83
238800.00,0.006,0,0,408.388,1972.514,4.83
239000.00,0.008,0,0,399.576,1931.5504,4.834
239200.00,0.015,0,0,413.879,1997.3801,4.826
239400.00,-0.012,0,0,413.805,1996.1952,4.824
239600.00,0,0,0,357.296,1739.3169,4.868
239800.00,-0.018,0,0,408.19,1971.5577,4.83
240000.00,-0.012,0,0,357.16,1737.9407,4.866
240200.00,0,0,0,407.993,1969.7903,4.828
240400.00,-0.029,0,0,409.235,1975.7865,4.828
240600.00,0.001,0,0,361.733,1759.4692,4.864
240800.00,-0.025,0,0,409.091,1975.9095,4.83
241000.00,-0.024,0,0,417.878,2017.515,4.828
241200.00,0.009,0,0,357.123,1737.7605,4.866
241400.00,0.015,0,0,410.51,1981.9424,4.828
241600.00,0.014,0,0,357.209,1737.4646,4.864
241800.00,0.002,0,0,407.911,1969.3944,4.828
242000.00,0.012,0,0,406.072,1960.5156,4.828
242200.00,0.003,0,0,358.782,1744.3982,4.862
242400.00,0.004,0,0,409.799,1979.3292,4.83
242600.00,0.01,0,0,417.969,2014.6106,4.82
242800.00,-0.007,0,0,358.838,1744.6704,4.862
243000.00,-0.003,0,0,405.828,1959.3376,4.828
243200.00,-0.01,0,0,362.276,1760.6614,4.86
243400.00,-0.004,0,0,410.379,1980.4891,4.826
243600.00,0.001,0,0,406.936,1965.5009,4.83
243800.00,0.009,0,0,357.079,1737.5465,4.866
244000.00,-0.012,0,0,408.479,1972.9536,4.83
244200.00,0.007,0,0,409.676,1976.277,4.824
244400.00,0,0,0,357.042,1736.6522,4.864
244600.00,0.014,0,0,411.206,1983.6577,4.824
244800.00,0,0,0,409.836,1975.4095,4.82
245000.00,0,0,0,357.511,1738.2184,4.862
245200.00,0.012,0,0,412.958,1993.7612,4.828
245400.00,-0.001,0,0,434.361,2092.7512,4.818
245600.00,0.017,0,0,411.358,1983.5682,4.822
245800.00,-0.002,0,0,415.611,2004.9073,4.824
246000.00,-0.015,0,0,357.487,1738.1018,4.862
246200.00,0,0,0,408.873,1974.0388,4.828
246400.00,-0.011,0,0,449.228,2157.1929,4.802
246600.00,-0.018,0,0,357.196,1738.1158,4.866
246800.00,0.001,0,0,411.305,1985.7805,4.828
247000.00,0,0,0,406.183,1961.8639,4.83
247200.00,-0.007,0,0,397.303,1920.5627,4.834
247400.00,0.002,0,0,409.347,1975.5087,4.826
247600.00,0.012,0,0,358.77,1745.0571,4.864
247800.00,0.016,0,0,411.312,1985.8145,4.828
248000.00,0.003,0,0,409.128,1976.9064,4.832
248200.00,0.004,0,0,449.796,2159.0208,4.8
248400.00,0.024,0,0,615.234,2885.4475,4.69
248600.00,0.015,0,0,357.198,1736.6967,4.862
248800.00,-0.001,0,0,416.075,2006.3137,4.822
249000.00,0,0,0,407.683,1969.1089,4.83
249200.00,0.007,0,0,357.235,1739.0199,4.868
249400.00,0.001,0,0,413.537,1996.5566,4.828
249600.00,0.015,0,0,410.945,1983.2207,4.826
249800.00,0.007,0,0,357.187,1737.3575,4.864
250000.00,-0.005,0,0,468.808,2244.6528,4.788
250200.00,-0.015,0,0,404.551,1952.3632,4.826
250400.00,-0.019,0,0,357.293,1737.1586,4.862
250600.00,0.002,0,0,415.893,2005.436,4.822
250800.00,0.012,0,0,362.693,1763.4133,4.862
251000.00,0.009,0,0,409.816,1979.4113,4.83
251200.00,0.006,0,0,463.062,2228.2544,4.812
251400.00,-0.001,0,0,357.411,1739.162,4.866
251600.00,0.017,0,0,419.444,2025.0757,4.828
251800.00,0,0,0,451.093,2150.8115,4.768
252000.00,0.003,0,0,412.401,1990.2473,4.826
252200.00,-0.006,0,0,405.867,1959.5259,4.828
252400.00,0.009,0,0,357.534,1739.0453,4.864
252600.00,0,0,0,409.644,1978.5806,4.83
252800.00,-0.001,0,0,410.352,1982.0001,4.83
253000.00,0.021,0,0,357.231,1737.5714,4.864
253200.00,0.001,0,0,410.829,1982.6609,4.826
253400.00,0.008,0,0,417.547,2012.5765,4.82
253600.00,0.017,0,0,357.231,1738.286,4.866
253800.00,0.001,0,0,411.442,1986.4419,4.828
254000.00,-0.003,0,0,357.261,1737.7174,4.864
254200.00,-0.002,0,0,409.171,1975.4775,4.828
254400.00,0.001,0,0,411.047,1982.8906,4.824
254600.00,-0.001,0,0,357.422,1739.2155,4.866
254800.00,-0.009,0,0,409.694,1978.0027,4.828
255000.00,-0.013,0,0,405.868,1960.3424,4.83
255200.00,-0.025,0,0,359.439,1747.5924,4.862
255400.00,-0.009,0,0,450.78,2162.8423,4.798
255600.00,0.017,0,0,406.794,1964.8151,4.83
255800.00,0.019,0,0,357.421,1739.2106,4.866
256000.00,-0.018,0,0,408.033,1971.6154,4.832
256200.00,-0.002,0,0,358.821,1744.5878,4.862
256400.00,-0.006,0,0,407.211,1966.0148,4.828
256600.00,0.004,0,0,414.702,2000.5223,4.824
256800.00,-0.012,0,0,357.519,1738.9724,4.864
257000.00,0.002,0,0,410.316,1980.1852,4.826
257200.00,0.006,0,0,411.913,1987.0682,4.824
257400.00,0.012,0,0,358.154,1742.0609,4.864
257600.00,-0.008,0,0,409.222,1973.2684,4.822
257800.00,0.005,0,0,408.358,1972.3691,4.83
258000.00,0.002,0,0,359.759,1749.8677,4.864
258200.00,-0.005,0,0,463.576,2221.4561,4.792
258400.00,0.009,0,0,357.666,1740.4027,4.866
258600.00,0.009,0,0,587.196,2760.9956,4.702
258800.00,0.004,0,0,449.779,2158.0396,4.798
259000.00,0.022,0,0,407.4,1967.7419,4.83
259200.00,0.007,0,0,409.157,1974.5918,4.826
259400.00,-0.005,0,0,357.79,1740.2905,4.864
259600.00,-0.017,0,0,408.75,1972.6276,4.826
259800.00,-0.007,0,0,415.908,2006.3401,4.824
260000.00,-0.015,0,0,356.924,1736.7924,4.866
260200.00,0.018,0,0,410.075,1980.6622,4.83
260400.00,0.008,0,0,406.405,1962.9362,4.83
260600.00,-0.009,0,0,357.345,1738.126,4.864
260800.00,-0.023,0,0,409.461,1976.8777,4.828
261000.00,0.003,0,0,437.924,2111.6697,4.822
261200.00,0.01,0,0,419.536,2024.6809,4.826
261400.00,-0.016,0,0,409.943,1978.385,4.826
261600.00,0.001,0,0,357.284,1737.8293,4.864
261800.00,0.002,0,0,408.733,1972.5455,4.826
262000.00,0.006,0,0,402.587,1944.4952,4.83
262200.00,0.017,0,0,357.795,1740.3149,4.864
262400.00,0.016,0,0,406.208,1961.1722,4.828
262600.00,0.012,0,0,436.727,2097.1631,4.802
262800.00,0.015,0,0,357.998,1742.7343,4.868
263000.00,0,0,0,414.172,1998.7942,4.826
263200.00,0.001,0,0,357.356,1738.1794,4.864
263400.00,0.008,0,0,411.848,1986.7546,4.824
263600.00,-0.009,0,0,407.899,1970.9678,4.832
263800.00,0.001,0,0,357.659,1740.3688,4.866
264000.00,0.011,0,0,410.749,1983.9176,4.83
264200.00,-0.01,0,0,411.473,1986.5917,4.828
264400.00,0.01,0,0,357.135,1737.1046,4.864
264600.00,-0.05,0,0,408.457,1971.2136,4.826
264800.00,0.002,0,0,417.898,2014.2684,4.82
265000.00,-0.009,0,0,357.031,1736.5988,4.864
265200.00,0,0,0,411.957,1989.7523,4.83
265400.00,0.005,0,0,620.849,2903.0901,4.676
265600.00,-0.013,0,0,360.474,1751.1826,4.858
265800.00,-0.003,0,0,415.652,2003.4427,4.82
266000.00,-0.008,0,0,358.265,1741.8845,4.862
266200.00,0.012,0,0,414.85,2002.0662,4.826
266400.00,-0.004,0,0,452.207,2169.6892,4.798
266600.00,-0.002,0,0,357.284,1737.1147,4.862
266800.00,0.004,0,0,408.252,1970.2244,4.826
267000.00,-0.003,0,0,416.656,2010.782,4.826
267200.00,0.01,0,0,357.327,1738.0385,4.864
267400.00,-0.013,0,0,409.876,1978.0616,4.826
267600.00,-0.018,0,0,476.559,2283.6707,4.792
267800.00,0.01,0,0,358.431,1743.4083,4.864
268000.00,0.004,0,0,407.4,1967.7419,4.83
268200.00,0.004,0,0,358.345,1742.2734,4.862
268400.00,-0.001,0,0,409.392,1978.182,4.832
268600.00,-0.011,0,0,409.77,1979.189,4.83
268800.00,0,0,0,449.532,2157.7537,4.8
269000.00,0.015,0,0,576.487,2711.7949,4.704
269200.00,0.005,0,0,357.541,1740.5095,4.868
269400.00,0.008,0,0,411.482,1985.8121,4.826
269600.00,-0.013,0,0,414.653,1999.4569,4.822
269800.00,-0.007,0,0,357.332,1739.4922,4.868
270000.00,0.012,0,0,407.912,1970.2148,4.83
270200.00,-0.014,0,0,408.739,1971.757,4.824
270400.00,0.002,0,0,357.133,1737.0948,4.864
270600.00,0.003,0,0,410.8,1984.1639,4.83
270800.00,-0.012,0,0,357.429,1737.8197,4.862
271000.00,0,0,0,408.401,1972.5768,4.83
271200.00,0.012,0,0,409.82,1978.6111,4.828
271400.00,0.017,0,0,357.127,1737.0658,4.864
271600.00,0.017,0,0,408.483,1972.156,4.828
271800.00,0.007,0,0,407.928,1969.4764,4.828
272000.00,-0.03,0,0,357.659,1738.938,4.862
272200.00,0.002,0,0,411.527,1986.0294,4.826
272400.00,0.012,0,0,357.166,1737.2552,4.864
272600.00,0.001,0,0,413.373,1994.1112,4.824
272800.00,-0.003,0,0,411.177,1984.3403,4.826
273000.00,0.004,0,0,357.209,1737.4646,4.864
273200.00,-0.001,0,0,413.904,1996.6729,4.824
273400.00,0.011,0,0,406.993,1964.1483,4.826
273600.00,0.005,0,0,356.931,1735.3986,4.862
273800.00,0.005,0,0,406.64,1964.0713,4.83
274000.00,-0.016,0,0,357.116,1737.0122,4.864
274200.00,0.009,0,0,412.785,1992.1005,4.826
274400.00,-0.002,0,0,405.887,1960.4342,4.83
274600.00,0.002,0,0,397.828,1924.6918,4.838
274800.00,0,0,0,413.131,1994.5966,4.828
275000.00,0,0,0,412.181,1988.3611,4.824
275200.00,0.012,0,0,360.621,1754.7819,4.866
275400.00,0.01,0,0,410.959,1983.2883,4.826
275600.00,0.014,0,0,407.252,1967.0272,4.83
275800.00,0,0,0,357.604,1738.6707,4.862
276000.00,0.005,0,0,413.534,1995.7152,4.826
276200.00,-0.008,0,0,415.385,2004.6482,4.826
276400.00,0.009,0,0,358.234,1743.1667,4.866
276600.00,-0.007,0,0,408.607,1972.7546,4.828
276800.00,0.007,0,0,357.184,1738.0574,4.866
277000.00,0,0,0,412.193,1989.2435,4.826
277200.00,-0.018,0,0,406.64,1963.2581,4.828
277400.00,0.012,0,0,357.561,1740.6069,4.868
277600.00,0.018,0,0,409.507,1976.2808,4.826
277800.00,-0.008,0,0,410.606,1981.5846,4.826
278000.00,-0.027,0,0,357.541,1739.0793,4.864
278200.00,0.017,0,0,409.878,1978.0713,4.826
278400.00,0,0,0,459.203,2209.6848,4.812
278600.00,-0.004,0,0,358.832,1744.6412,4.862
278800.00,0.013,0,0,617.358,2899.113,4.696
279000.00,0.001,0,0,357.085,1737.5757,4.866
279200.00,-0.006,0,0,417.479,2013.9187,4.824
279400.00,0.001,0,0,484.692,2326.5217,4.8
279600.00,0.002,0,0,392.085,1893.7705,4.83
279800.00,0,0,0,406.475,1963.2743,4.83
280000.00,-0.001,0,0,357.419,1738.486,4.864
280200.00,-0.004,0,0,407.042,1966.8268,4.832
280400.00,-0.004,0,0,407.824,1968.9744,4.828
280600.00,0.002,0,0,359.338,1747.1014,4.862
280800.00,-0.018,0,0,414.661,2001.9834,4.828
281000.00,-0.011,0,0,406.356,1962.6993,4.83
281200.00,-0.019,0,0,357.4,1738.3936,4.864
281400.00,0.016,0,0,411.872,1988.5181,4.828
281600.00,-0.024,0,0,414.069,1998.2971,4.826
281800.00,0.003,0,0,357.45,1738.6368,4.864
282000.00,-0.011,0,0,406.776,1963.9146,4.828
282200.00,-0.007,0,0,449.261,2157.3513,4.802
282400.00,0.01,0,0,406.536,1963.5688,4.83
282600.00,0.028,0,0,409.202,1974.809,4.826
282800.00,0.001,0,0,399.354,1931.276,4.836
283000.00,-0.011,0,0,411.749,1987.1007,4.826
283200.00,-0.005,0,0,408.829,1973.0089,4.826
283400.00,0.004,0,0,356.956,1736.2339,4.864
283600.00,0.013,0,0,411.453,1985.6722,4.826
283800.00,0.017,0,0,514.199,2449.6438,4.764
284000.00,-0.014,0,0,356.926,1736.088,4.864
284200.00,-0.006,0,0,419.285,2021.7924,4.822
284400.00,-0.006,0,0,358.573,1744.8163,4.866
284600.00,-0.02,0,0,406.768,1964.6895,4.83
284800.00,-0.008,0,0,407.755,1968.6412,4.828
285000.00,-0.003,0,0,357.326,1737.319,4.862
285200.00,0.008,0,0,412.563,1991.0291,4.826
285400.00,0.003,0,0,408.775,1972.7482,4.826
285600.00,-0.012,0,0,449.598,2158.0706,4.8
285800.00,0.009,0,0,411.786,1988.1029,4.828
286000.00,0.001,0,0,357.672,1739.0012,4.862
286200.00,-0.003,0,0,426.41,2053.5906,4.816
286400.00,0,0,0,445.982,2142.4976,4.804
286600.00,0.004,0,0,412.637,1991.3862,4.826
286800.00,-0.033,0,0,437.047,2098.6997,4.802
287000.00,0.011,0,0,410.934,1983.1675,4.826
287200.00,0.017,0,0,407.911,1970.2102,4.83
287400.00,-0.014,0,0,356.864,1736.5004,4.866
287600.00,0,0,0,410.942,1984.8497,4.83
287800.00,-0.017,0,0,414.064,1998.2729,4.826
288000.00,-0.018,0,0,357.087,1736.8711,4.864
288200.00,-0.007,0,0,408.489,1973.002,4.83
288400.00,0.031,0,0,475.495,2269.062,4.772
288600.00,0.017,0,0,357.093,1737.6145,4.866
288800.00,0.005,0,0,413.813,1996.2338,4.824
289000.00,0.011,0,0,357.655,1739.6339,4.864
289200.00,-0.019,0,0,608.236,2857.4929,4.698
289400.00,-0.004,0,0,410.654,1982.6375,4.828
289600.00,0.004,0,0,357.537,1738.3448,4.862
289800.00,0.006,0,0,409.605,1977.573,4.828
290000.00,-0.006,0,0,416.035,2007.785,4.826
290200.00,-0.012,0,0,356.846,1735.699,4.864
290400.00,0.008,0,0,413.377,1994.9575,4.826
290600.00,-0.004,0,0,357.106,1738.392,4.868
290800.00,0.014,0,0,414.845,2001.2123,4.824
291000.00,0.024,0,0,453.992,2178.2537,4.798
291200.00,-0.004,0,0,357.359,1738.9091,4.866
291400.00,0.01,0,0,409.168,1975.4631,4.828
291600.00,0.001,0,0,406.947,1966.3678,4.832
291800.00,0,0,0,357.352,1737.4453,4.862
292000.00,-0.013,0,0,413.505,1994.748,4.824
292200.00,0.023,0,0,408.963,1974.4735,4.828
292400.00,-0.003,0,0,358.531,1744.6119,4.866
292600.00,0.013,0,0,594.463,2791.5984,4.696
292800.00,0,0,0,357.507,1739.629,4.866
293000.00,0,0,0,414.426,1998.3622,4.822
293200.00,-0.005,0,0,408.169,1970.64,4.828
293400.00,0.005,0,0,357.865,1740.6553,4.864
293600.00,0.015,0,0,408.428,1973.524,4.832
293800.00,0.016,0,0,403.75,1950.9199,4.832
294000.00,-0.004,0,0,357.087,1736.8711,4.864
294200.00,-0.017,0,0,409.563,1978.1892,4.83
294400.00,0,0,0,405.622,1958.3431,4.828
294600.00,0,0,0,359.365,1747.2325,4.862
294800.00,0.009,0,0,414.717,2001.4244,4.826
295000.00,-0.006,0,0,416.741,2011.1921,4.826
295200.00,0.006,0,0,357.538,1739.0647,4.864
295400.00,0.022,0,0,410.612,1981.6136,4.826
295600.00,0.005,0,0,410.563,1983.8402,4.832
295800.00,0,0,0,357.126,1737.7753,4.866
296000.00,0.017,0,0,409.917,1979.0792,4.828
296200.00,-0.001,0,0,357.403,1738.4082,4.864
296400.00,0.011,0,0,405.585,1958.1643,4.828
296600.00,0.003,0,0,408.744,1974.2334,4.83
296800.00,0.007,0,0,357.422,1738.5005,4.864
297000.00,-0.006,0,0,419.823,2023.5469,4.82
297200.00,0.012,0,0,409.073,1975.8225,4.83
297400.00,0.015,0,0,357.063,1738.1826,4.868
297600.00,0.005,0,0,410.785,1983.27,4.828
297800.00,0,0,0,410.83,1981.8438,4.824
298000.00,-0.01,0,0,357.23,1738.2812,4.866
298200.00,0.028,0,0,412.323,1989.8708,4.826
298400.00,0.002,0,0,408.181,1972.3304,4.832
298600.00,-0.004,0,0,356.976,1737.0453,4.866
298800.00,-0.007,0,0,415.018,2000.3868,4.82
299000.00,-0.003,0,0,409.119,1975.2266,4.828
299200.00,-0.01,0,0,398.135,1924.5847,4.834
299400.00,-0.012,0,0,612.458,2871.2034,4.688
299600.00,-0.015,0,0,358.241,1742.4841,4.864
299800.00,0.016,0,0,410.242,1979.0073,4.824
300000.00,-0.021,0,0,402.603,1944.5724,4.83
300200.00,-0.006,0,0,358.099,1741.7935,4.864
300400.00,-0.006,0,0,409.242,1975.8204,4.828
300600.00,0.006,0,0,407.539,1970.0436,4.834
300800.00,0.012,0,0,357.142,1738.5673,4.868
301000.00,0.009,0,0,408.877,1974.0582,4.828
301200.00,0.001,0,0,411.135,1984.9598,4.828
301400.00,0.019,0,0,357.327,1738.7532,4.866
301600.00,0,0,0,409.481,1977.7931,4.83
301800.00,0.01,0,0,411.254,1987.1792,4.832
302000.00,0.001,0,0,397.851,1924.8031,4.838
302200.00,0,0,0,410.185,1979.5529,4.826
302400.00,0.006,0,0,409.012,1973.892,4.826
302600.00,-0.005,0,0,357.426,1738.52,4.864
302800.00,0,0,0,588.256,2761.2734,4.694
303000.00,0.015,0,0,357.438,1738.5784,4.864
303200.00,0.005,0,0,411.448,1985.6481,4.826
303400.00,-0.027,0,0,409.683,1977.1304,4.826
303600.00,-0.004,0,0,357.345,1738.8408,4.866
303800.00,-0.003,0,0,411.312,1985.8145,4.828
304000.00,0.007,0,0,406.549,1963.6317,4.83
304200.00,-0.014,0,0,358.655,1744.4978,4.864
304400.00,0.011,0,0,438.467,2113.4111,4.82
304600.00,0.011,0,0,412.217,1990.1837,4.828
304800.00,-0.006,0,0,357.445,1737.8976,4.862
305000.00,0.001,0,0,407.255,1966.2272,4.828
305200.00,0,0,0,411.377,1984.4827,4.824
305400.00,0,0,0,357.68,1741.1862,4.868
305600.00,-0.002,0,0,412.18,1990.005,4.828
305800.00,-0.015,0,0,414.771,2000.8552,4.824
306000.00,0.003,0,0,357.445,1738.6124,4.864
306200.00,0,0,0,588.491,2770.616,4.708
306400.00,-0.004,0,0,357.315,1738.6948,4.866
306600.00,-0.009,0,0,409.42,1976.6798,4.828
306800.00,-0.008,0,0,408.178,1969.8672,4.826
307000.00,-0.005,0,0,360.159,1751.093,4.862
307200.00,-0.005,0,0,410.362,1981.2278,4.828
307400.00,-0.013,0,0,412.016,1988.3893,4.826
307600.00,0.021,0,0,357.247,1737.6494,4.864
307800.00,-0.015,0,0,409.807,1979.3678,4.83
308000.00,0.001,0,0,409.005,1973.8583,4.826
308200.00,0.007,0,0,357.303,1738.6365,4.866
308400.00,0.002,0,0,411.303,1984.9484,4.826
308600.00,0.014,0,0,410.254,1979.0652,4.824
308800.00,-0.008,0,0,357.507,1739.629,4.866
309000.00,0.009,0,0,415.203,2002.9392,4.824
309200.00,0.01,0,0,407.494,1968.1959,4.83
309400.00,-0.021,0,0,357.278,1739.2294,4.868
309600.00,-0.002,0,0,578.062,2721.5161,4.708
309800.00,0.004,0,0,357.37,1738.2476,4.864
310000.00,0.001,0,0,406.549,1962.0056,4.826
310200.00,-0.02,0,0,401.156,1939.9905,4.836
310400.00,0,0,0,409.881,1979.7252,4.83
310600.00,-0.007,0,0,434.847,2091.614,4.81
310800.00,0.013,0,0,357.993,1741.994,4.866
311000.00,0.01,0,0,409.083,1974.2347,4.826
311200.00,-0.006,0,0,409.663,1976.2142,4.824
311400.00,-0.013,0,0,357.746,1740.7921,4.866
311600.00,0.014,0,0,405.566,1958.8838,4.83
311800.00,-0.011,0,0,406.146,1960.8729,4.828
312000.00,-0.029,0,0,357.067,1736.7738,4.864
312200.00,-0.002,0,0,408.622,1973.6443,4.83
312400.00,-0.006,0,0,410.979,1982.5626,4.824
312600.00,-0.007,0,0,357.358,1738.9041,4.866
312800.00,-0.016,0,0,411.004,1983.5054,4.826
313000.00,-0.009,0,0,611.878,2873.3792,4.696
313200.00,-0.003,0,0,357.321,1738.0094,4.864
313400.00,-0.004,0,0,409.355,1978.0033,4.832
313600.00,-0.01,0,0,358.851,1744.7336,4.862
313800.00,0,0,0,411.732,1987.0187,4.826
314000.00,0.015,0,0,481.718,2298.7581,4.772
314200.00,-0.012,0,0,357.45,1737.922,4.862
314400.00,0.022,0,0,410.354,1980.3685,4.826
314600.00,0.012,0,0,410.786,1981.6317,4.824
314800.00,0.002,0,0,357.215,1737.4937,4.864
315000.00,0.012,0,0,412.539,1991.7383,4.828
315200.00,0.002,0,0,409.861,1978.809,4.828
315400.00,0.003,0,0,357.672,1740.432,4.866
315600.00,0,0,0,411.584,1987.1277,4.828
315800.00,0.013,0,0,412.078,1990.3367,4.83
316000.00,0.002,0,0,357.086,1736.8662,4.864
316200.00,-0.004,0,0,413.011,1993.1912,4.826
316400.00,-0.001,0,0,358.673,1744.5854,4.864
316600.00,0.011,0,0,412.678,1991.5841,4.826
316800.00,-0.002,0,0,415.689,2005.2837,4.824
317000.00,0.006,0,0,357.315,1737.9801,4.864
317200.00,0.005,0,0,412.135,1988.9636,4.826
317400.00,-0.015,0,0,409.859,1978.7993,4.828
317600.00,-0.011,0,0,357.846,1740.563,4.864
317800.00,0.006,0,0,411.444,1985.6288,4.826
318000.00,-0.001,0,0,411.839,1988.3586,4.828
318200.00,0.015,0,0,357.395,1738.3691,4.864
318400.00,0.013,0,0,449.557,2156.9744,4.798
318600.00,-0.002,0,0,407.363,1967.5632,4.83
318800.00,0.019,0,0,357.358,1738.9041,4.866
319000.00,0.012,0,0,414.632,2001.014,4.826
319200.00,-0.003,0,0,357.666,1738.972,4.862
319400.00,0.001,0,0,412.053,1990.2159,4.83
319600.00,-0.02,0,0,414.538,2001.3895,4.828
319800.00,0.009,0,0,358.338,1742.9561,4.864
320000.00,0,0,0,414.982,2001.0432,4.822
320200.00,0.012,0,0,410.231,1980.5952,4.828
320400.00,0.003,0,0,357.437,1740.0034,4.868
320600.00,-0.018,0,0,409.836,1977.0488,4.824
320800.00,0,0,0,357.264,1737.7321,4.864
321000.00,-0.003,0,0,408.96,1973.641,4.826
321200.00,0.001,0,0,404.875,1957.1658,4.834
321400.00,0.007,0,0,357.61,1740.1302,4.866
321600.00,0,0,0,409.639,1977.7372,4.828
321800.00,-0.008,0,0,418.586,2019.2588,4.824
322000.00,-0.011,0,0,357.696,1739.8334,4.864
322200.00,-0.015,0,0,412.506,1992.4041,4.83
322400.00,0.009,0,0,414.621,2000.1317,4.824
322600.00,-0.008,0,0,357.263,1739.1562,4.868
322800.00,0.014,0,0,608.277,2854.0356,4.692
323000.00,0.001,0,0,359.793,1749.3136,4.862
323200.00,-0.006,0,0,410.095,1981.579,4.832
323400.00,0,0,0,413.353,1994.8417,4.826
323600.00,0,0,0,357.271,1737.7661,4.864
323800.00,0.012,0,0,405.717,1959.6132,4.83
324000.00,-0.012,0,0,408.766,1974.3397,4.83
324200.00,0,0,0,357.685,1740.4952,4.866
324400.00,0.009,0,0,407.161,1965.7734,4.828
324600.00,0.003,0,0,452.231,2170.7087,4.8
324800.00,-0.035,0,0,357.426,1737.8052,4.862
325000.00,-0.007,0,0,411.444,1985.6288,4.826
325200.00,-0.004,0,0,357.488,1738.1067,4.862
325400.00,0.009,0,0,414.146,1997.8402,4.824
325600.00,-0.001,0,0,408.63,1972.8657,4.828
325800.00,0.015,0,0,358.888,1746.3491,4.866
326000.00,-0.017,0,0,410.979,1984.2067,4.828
326200.00,0.003,0,0,450.063,2159.4021,4.798
326400.00,0.008,0,0,414.496,2000.3578,4.826
326600.00,0.022,0,0,452.26,2168.1345,4.794
326800.00,0.007,0,0,357.345,1737.4114,4.862
327000.00,0.024,0,0,406.253,1963.0144,4.832
327200.00,-0.006,0,0,407.61,1967.941,4.828
327400.00,0.004,0,0,357.345,1738.126,4.864
327600.00,0.005,0,0,408.05,1970.8815,4.83
327800.00,0.007,0,0,412.357,1990.0349,4.826
328000.00,0.012,0,0,358.956,1746.6799,4.866
328200.00,-0.012,0,0,407.1,1967.1072,4.832
328400.00,-0.012,0,0,411.456,1985.6868,4.826
328600.00,0.015,0,0,356.95,1736.2048,4.864
328800.00,0.005,0,0,414.101,1998.4515,4.826
329000.00,-0.011,0,0,357.4,1738.3936,4.864
329200.00,0.001,0,0,406.825,1963.3376,4.826
329400.00,-0.006,0,0,406.566,1962.9008,4.828
329600.00,-0.002,0,0,357.129,1737.0754,4.864
329800.00,0.019,0,0,410.576,1981.4398,4.826
330000.00,-0.014,0,0,411.223,1985.3846,4.828
330200.00,0.003,0,0,357.307,1739.3705,4.868
330400.00,0,0,0,406.299,1962.4242,4.83
330600.00,-0.013,0,0,357.665,1739.6825,4.864
330800.00,0.01,0,0,409.014,1973.9017,4.826
331000.00,-0.002,0,0,408.076,1971.007,4.83
331200.00,-0.006,0,0,357.196,1737.4014,4.864
331400.00,-0.005,0,0,409.717,1977.2944,4.826
331600.00,0,0,0,407.442,1967.1299,4.828
331800.00,0.008,0,0,357.363,1738.2136,4.864
332000.00,0.01,0,0,409.355,1977.1847,4.83
332200.00,0.02,0,0,411.268,1984.7795,4.826
332400.00,-0.016,0,0,357.314,1737.2606,4.862
332600.00,0,0,0,411.766,1987.1827,4.826
332800.00,-0.01,0,0,357.566,1739.9163,4.866
333000.00,0,0,0,580.868,2731.2412,4.702
333200.00,-0.022,0,0,452.893,2172.9805,4.798
333400.00,-0.012,0,0,411.65,1985.7996,4.824
333600.00,0,0,0,411.675,1989.2135,4.832
333800.00,0.003,0,0,357.524,1738.9966,4.864
334000.00,-0.007,0,0,411.991,1987.4446,4.824
334200.00,0.001,0,0,418.705,2018.9955,4.822
334400.00,0.01,0,0,357.469,1738.0143,4.862
334600.00,0.009,0,0,414.262,1998.3998,4.824
334800.00,0.012,0,0,498.008,2360.5579,4.74
335000.00,0,0,0,357.197,1737.4061,4.864
335200.00,0.025,0,0,417.298,2012.2109,4.822
335400.00,-0.006,0,0,357.216,1737.4985,4.864
335600.00,0.013,0,0,416.824,2010.7589,4.824
335800.00,0.011,0,0,404.619,1954.3097,4.83
336000.00,-0.008,0,0,357.13,1736.3661,4.862
336200.00,0.001,0,0,409.852,1977.9458,4.826
336400.00,-0.011,0,0,406.29,1960.7556,4.826
336600.00,0.016,0,0,449.458,2158.2974,4.802
336800.00,-0.001,0,0,449.289,2157.4858,4.802
337000.00,0.005,0,0,408.664,1973.847,4.83
337200.00,0,0,0,412.378,1989.3114,4.824
337400.00,0.015,0,0,357.518,1738.9675,4.864
337600.00,0.003,0,0,451.161,2165.573,4.8
337800.00,-0.006,0,0,409.358,1976.3805,4.828
338000.00,0.002,0,0,357.543,1738.374,4.862
338200.00,-0.026,0,0,413.015,1993.2106,4.826
338400.00,-0.002,0,0,414.48,1999.4515,4.824
338600.00,-0.005,0,0,360.042,1751.2441,4.864
338800.00,0.008,0,0,409.634,1977.713,4.828
339000.00,0.012,0,0,408.985,1973.7616,4.826
339200.00,0.012,0,0,357.635,1738.8214,4.862
339400.00,0.012,0,0,422.14,2035.5592,4.822
339600.00,-0.018,0,0,358.893,1745.6555,4.864
339800.00,-0.011,0,0,414.834,2001.1592,4.824
340000.00,-0.004,0,0,408.449,1973.6255,4.832
340200.00,-0.015,0,0,391.673,1899.614,4.85
340400.00,0.011,0,0,410.012,1979.538,4.828
340600.00,-0.013,0,0,408.642,1972.1063,4.826
340800.00,0.02,0,0,357.167,1736.5459,4.862
341000.00,0.006,0,0,407.934,1969.5054,4.828
341200.00,-0.006,0,0,416.425,2009.6671,4.826
341400.00,0.001,0,0,357.778,1740.2322,4.864
341600.00,0.007,0,0,411.402,1985.4261,4.826
341800.00,0.009,0,0,357.235,1737.5909,4.864
342000.00,0,0,0,408.556,1972.5084,4.828
342200.00,-0.002,0,0,412.641,1990.5801,4.824
342400.00,-0.015,0,0,357.475,1738.0435,4.862
342600.00,-0.02,0,0,408.63,1974.5001,4.832
342800.00,0.021,0,0,410.715,1982.932,4.828
343000.00,-0.003,0,0,398.012,1923.99,4.834
343200.00,0,0,0,406.293,1961.5826,4.828
343400.00,0.014,0,0,359.531,1748.0398,4.862
343600.00,0.007,0,0,595.142,2794.7871,4.696
343800.00,0,0,0,452.129,2170.2192,4.8
344000.00,-0.003,0,0,408.082,1971.036,4.83
344200.00,0.013,0,0,409.205,1975.6417,4.828
344400.00,-0.002,0,0,357.408,1739.1473,4.866
344600.00,0.007,0,0,408.354,1970.7166,4.826
344800.00,-0.012,0,0,412.525,1989.1956,4.822
345000.00,-0.024,0,0,357.759,1739.4243,4.862
345200.00,-0.013,0,0,412.843,1992.3804,4.826
345400.00,0.002,0,0,408.671,1974.6981,4.832
345600.00,-0.019,0,0,357.197,1737.4061,4.864
345800.00,0.006,0,0,454.457,2181.3938,4.8
346000.00,-0.008,0,0,357.888,1740.0515,4.862
346200.00,-0.007,0,0,408.536,1973.2289,4.83
346400.00,-0.001,0,0,404.36,1951.4414,4.826
346600.00,0.012,0,0,357.5,1738.165,4.862
346800.00,-0.007,0,0,414.882,2000.5609,4.822
347000.00,0.003,0,0,411.316,1984.1884,4.824
347200.00,-0.016,0,0,449.315,2155.8132,4.798
347400.00,0,0,0,412.11,1989.667,4.828
347600.00,-0.006,0,0,357.451,1737.9268,4.862
347800.00,-0.014,0,0,409.054,1974.0946,4.826
348000.00,-0.014,0,0,361.072,1755.532,4.862
348200.00,0.015,0,0,413.558,1996.6581,4.828
348400.00,0.005,0,0,409.096,1975.1156,4.828
348600.00,-0.006,0,0,357.308,1738.6609,4.866
348800.00,0.02,0,0,408.321,1970.5573,4.826
349000.00,0.001,0,0,413.554,1994.9844,4.824
349200.00,-0.017,0,0,357.759,1740.1398,4.864
349400.00,0.007,0,0,413.632,1996.1881,4.826
349600.00,0.021,0,0,409.992,1979.4414,4.828
349800.00,-0.012,0,0,357.426,1737.8052,4.862
350000.00,0.014,0,0,407.26,1967.0658,4.83
350200.00,0.001,0,0,408.025,1969.1287,4.826
350400.00,-0.006,0,0,357.006,1737.1913,4.866
350600.00,0.01,0,0,413.554,1995.8116,4.826
350800.00,0.002,0,0,357.661,1741.0939,4.868
351000.00,-0.018,0,0,411.468,1985.7446,4.826
351200.00,-0.01,0,0,418.133,2017.0735,4.824
351400.00,-0.015,0,0,358.32,1742.8684,4.864
351600.00,-0.007,0,0,412.892,1991.7909,4.824
351800.00,-0.017,0,0,372.019,1808.7565,4.862
352000.00,0,0,0,417.446,2015.4294,4.828
352200.00,0,0,0,417.372,2013.4025,4.824
352400.00,-0.003,0,0,357.13,1737.7947,4.866
352600.00,0.024,0,0,417.047,2011.0006,4.822
352800.00,0,0,0,411.525,1986.0197,4.826
353000.00,0,0,0,357.285,1738.549,4.866
353200.00,-0.016,0,0,405.663,1958.541,4.828
353400.00,-0.002,0,0,412.595,1992.0087,4.828
353600.00,0,0,0,357.544,1739.8092,4.866
353800.00,-0.024,0,0,411.183,1986.8362,4.832
354000.00,0,0,0,725.335,3336.541,4.6
354200.00,0,0,0,357.52,1739.6924,4.866
354400.00,-0.012,0,0,411.874,1987.704,4.826
354600.00,0.015,0,0,357.397,1738.379,4.864
354800.00,-0.015,0,0,410.006,1981.1489,4.832
355000.00,0.002,0,0,410.043,1979.6876,4.828
355200.00,0.012,0,0,360.465,1752.5808,4.862
355400.00,0.003,0,0,415.222,2003.0308,4.824
355600.00,0.012,0,0,411.947,1988.0563,4.826
355800.00,-0.017,0,0,358.713,1745.4976,4.866
356000.00,0.028,0,0,408.94,1973.5446,4.826
356200.00,0.012,0,0,441.87,2120.0923,4.798
356400.00,0.008,0,0,357.245,1738.3542,4.866
356600.00,-0.001,0,0,408.302,1972.9152,4.832
356800.00,0.01,0,0,358.399,1744.6863,4.868
357000.00,-0.016,0,0,409.01,1974.7003,4.828
357200.00,0.005,0,0,408.8,1972.0511,4.824
357400.00,0.007,0,0,449.954,2159.7793,4.8
357600.00,-0.009,0,0,636.558,2980.3645,4.682
357800.00,-0.015,0,0,357.491,1740.2662,4.868
358000.00,-0.01,0,0,410.182,1980.3588,4.828
358200.00,0.007,0,0,409.429,1975.9044,4.826
358400.00,-0.005,0,0,356.936,1737.5645,4.868
358600.00,-0.011,0,0,412.305,1988.1346,4.822
358800.00,0.002,0,0,409.031,1976.4377,4.832
359000.00,0,0,0,356.848,1737.136,4.868
359200.00,0.006,0,0,410.389,1982.1788,4.83
359400.00,-0.007,0,0,442.133,2118.7012,4.792
359600.00,-0.007,0,0,356.861,1735.0581,4.862
359800.00,-0.003,0,0,417.601,2014.5072,4.824
360000.00,-0.001,0,0,359.545,1748.8269,4.864
360200.00,-0.001,0,0,408.09,1971.0747,4.83
360400.00,-0.003,0,0,409.25,1977.4958,4.832
360600.00,-0.001,0,0,357.334,1738.7874,4.866
360800.00,0.011,0,0,410.091,1979.9194,4.828
361000.00,0,0,0,357.426,1739.235,4.866
361200.00,-0.003,0,0,408.617,1972.803,4.828
361400.00,0.012,0,0,411.394,1985.3876,4.826
361600.00,0,0,0,357.759,1740.8553,4.866
361800.00,-0.008,0,0,410.156,1978.5925,4.824
362000.00,-0.009,0,0,413.624,1997.8038,4.83
362200.00,0.007,0,0,399.159,1931.1311,4.838
362400.00,-0.011,0,0,415.993,2006.7502,4.824
362600.00,0.019,0,0,467.103,2226.2129,4.766
362800.00,-0.008,0,0,363.683,1760.9531,4.842
363000.00,0.001,0,0,411.333,1986.7384,4.83
363200.00,0.008,0,0,358.512,1744.5194,4.866
363400.00,0.001,0,0,418.293,2016.1724,4.82
363600.00,0,0,0,403.763,1951.7904,4.834
363800.00,-0.002,0,0,357.551,1739.8433,4.866
364000.00,-0.009,0,0,414.446,1996.8008,4.818
364200.00,-0.006,0,0,406.066,1962.9231,4.834
364400.00,-0.019,0,0,357.18,1738.038,4.866
364600.00,0.004,0,0,413.076,1993.5048,4.826
364800.00,0.01,0,0,458.864,2198.8762,4.792
365000.00,-0.004,0,0,357.353,1738.8798,4.866
365200.00,-0.008,0,0,414.808,2001.8635,4.826
365400.00,0,0,0,357.507,1738.9139,4.864
365600.00,0,0,0,411.649,1987.4413,4.828
365800.00,0.01,0,0,407.342,1968.2765,4.832
366000.00,0.017,0,0,357.587,1739.3031,4.864
366200.00,0.003,0,0,412.155,1989.8844,4.828
366400.00,-0.002,0,0,413.87,1997.3367,4.826
366600.00,0.004,0,0,357.593,1740.0475,4.866
366800.00,-0.005,0,0,408.284,1970.3787,4.826
367000.00,0.004,0,0,412.357,1989.2101,4.824
367200.00,0.011,0,0,357.012,1737.2205,4.866
367400.00,0,0,0,414.509,2000.4205,4.826
367600.00,-0.019,0,0,451.803,2167.7507,4.798
367800.00,0.013,0,0,585.815,2756.8452,4.706
368000.00,0,0,0,357.752,1741.5369,4.868
368200.00,0.001,0,0,410.345,1981.1458,4.828
368400.00,-0.01,0,0,408.815,1974.5764,4.83
368600.00,-0.003,0,0,357.204,1737.4403,4.864
368800.00,-0.011,0,0,408.708,1974.877,4.832
369000.00,0.01,0,0,421.309,2029.8667,4.818
369200.00,0.013,0,0,357.345,1737.4114,4.862
369400.00,0.009,0,0,410.486,1981.8264,4.828
369600.00,-0.014,0,0,408.054,1972.533,4.834
369800.00,0.017,0,0,357.056,1738.1486,4.868
370000.00,-0.001,0,0,406.519,1963.4868,4.83
370200.00,0.001,0,0,415.43,2004.8652,4.826
370400.00,0.01,0,0,400.398,1935.524,4.834
370600.00,0.004,0,0,412.036,1987.6616,4.824
370800.00,0.001,0,0,357.13,1737.7947,4.866
371000.00,0.003,0,0,410.999,1984.3032,4.828
371200.00,0.008,0,0,582.149,2738.4287,4.704
371400.00,0.001,0,0,358.16,1741.3739,4.862
371600.00,0.012,0,0,408.61,1972.769,4.828
371800.00,-0.005,0,0,358.142,1742.0026,4.864
372000.00,0.001,0,0,410.024,1979.5958,4.828
372200.00,0.012,0,0,407.643,1969.731,4.832
372400.00,-0.005,0,0,357.364,1739.6481,4.868
372600.00,0.012,0,0,409.514,1977.1337,4.828
372800.00,0,0,0,409.724,1978.9669,4.83
373000.00,0,0,0,357.556,1739.1523,4.864
373200.00,-0.019,0,0,451.519,2167.2913,4.8
373400.00,0.026,0,0,415.842,2006.8536,4.826
373600.00,-0.005,0,0,362.405,1754.765,4.842
373800.00,0.011,0,0,408.721,1973.3051,4.828
374000.00,0.012,0,0,358.024,1742.1448,4.866
374200.00,-0.008,0,0,408.301,1972.9103,4.832
374400.00,0,0,0,417.858,2015.7469,4.824
374600.00,-0.006,0,0,357.4,1739.1084,4.866
374800.00,0.011,0,0,407.565,1968.5389,4.83
375000.00,0.011,0,0,409.387,1977.3391,4.83
375200.00,-0.007,0,0,356.469,1733.8651,4.864
375400.00,-0.005,0,0,406.129,1961.603,4.83
375600.00,-0.006,0,0,424.209,2039.5969,4.808
375800.00,0.008,0,0,358.481,1742.9346,4.862
376000.00,-0.002,0,0,413.275,1994.4652,4.826
376200.00,0.003,0,0,357.056,1738.1486,4.868
376400.00,0.028,0,0,410.061,1980.5946,4.83
376600.00,-0.004,0,0,412.085,1989.5464,4.828
376800.00,0.004,0,0,357.192,1737.3817,4.864
377000.00,-0.005,0,0,405.882,1961.2217,4.832
377200.00,-0.016,0,0,416.266,2007.2346,4.822
377400.00,-0.003,0,0,358.745,1744.9355,4.864
377600.00,0.01,0,0,404.752,1956.5713,4.834
377800.00,0.003,0,0,450.548,2164.4326,4.804
378000.00,-0.007,0,0,451.717,2167.3381,4.798
378200.00,0.01,0,0,449.467,2157.4417,4.8
378400.00,0.016,0,0,410.456,1982.5024,4.83
378600.00,0.009,0,0,413.147,1993.0211,4.824
378800.00,0.004,0,0,356.518,1734.8167,4.866
379000.00,0.021,0,0,404.451,1954.3071,4.832
379200.00,-0.009,0,0,418.479,2018.7427,4.824
379400.00,0.02,0,0,356.196,1733.9622,4.868
379600.00,0.001,0,0,407.13,1968.0665,4.834
379800.00,0.017,0,0,410.03,1979.6249,4.828
380000.00,0.012,0,0,356.473,1734.5977,4.866
380200.00,0.014,0,0,409.734,1978.1958,4.828
380400.00,0.007,0,0,417.138,2012.2737,4.824
380600.00,-0.01,0,0,356.974,1737.7494,4.868
380800.00,-0.006,0,0,408.471,1972.098,4.828
381000.00,-0.001,0,0,356.912,1736.7338,4.866
381200.00,-0.006,0,0,407.328,1967.3942,4.83
381400.00,0,0,0,450.889,2164.2673,4.8
381600.00,-0.01,0,0,357.794,1741.7412,4.868
381800.00,0.019,0,0,447.952,2153.7532,4.808
382000.00,-0.002,0,0,424.876,2046.2029,4.816
382200.00,0.002,0,0,357.344,1738.8359,4.866
382400.00,-0.006,0,0,433.818,2084.0615,4.804
382600.00,-0.007,0,0,405.554,1966.1257,4.848
382800.00,-0.016,0,0,416.117,2007.3484,4.824
383000.00,0.016,0,0,411.008,1984.3467,4.828
383200.00,-0.023,0,0,357.27,1738.4758,4.866
383400.00,-0.002,0,0,410.408,1979.8081,4.824
383600.00,-0.006,0,0,410.071,1980.6429,4.83
383800.00,-0.001,0,0,358.234,1741.7338,4.862
384000.00,-0.003,0,0,408.696,1973.1843,4.828
384200.00,-0.014,0,0,407.186,1965.894,4.828
384400.00,0.011,0,0,357.475,1738.7584,4.864
384600.00,-0.006,0,0,417.318,2013.9767,4.826
384800.00,-0.015,0,0,416.368,2011.0575,4.83
385000.00,-0.002,0,0,357.592,1739.3275,4.864
385200.00,0.003,0,0,420.371,2028.7106,4.826
385400.00,-0.002,0,0,361.146,1755.8918,4.862
385600.00,0.018,0,0,410.012,1980.3579,4.83
385800.00,-0.007,0,0,408.309,1972.1324,4.83
386000.00,-0.011,0,0,357.692,1739.8137,4.864
386200.00,0,0,0,407.539,1969.2284,4.832
386400.00,-0.012,0,0,412.402,1986.9528,4.818
386600.00,0.01,0,0,357.884,1740.032,4.862
386800.00,0.015,0,0,404.992,1955.3014,4.828
387000.00,0.008,0,0,360.137,1750.9861,4.862
387200.00,0.001,0,0,407.666,1969.0267,4.83
387400.00,0,0,0,414.516,2001.2832,4.828
387600.00,0,0,0,356.897,1736.6609,4.866
387800.00,-0.02,0,0,407.707,1969.2247,4.83
388000.00,0.011,0,0,409.707,1977.2461,4.826
388200.00,0.003,0,0,357.292,1737.8682,4.864
388400.00,0.008,0,0,409.522,1977.9912,4.83
388600.00,0.013,0,0,449.595,2158.9553,4.802
388800.00,0.002,0,0,414.174,1997.9753,4.824
389000.00,0.002,0,0,405.511,1959.429,4.832
389200.00,0,0,0,357.612,1739.4247,4.864
389400.00,0,0,0,408.46,1972.8617,4.83
389600.00,0.003,0,0,453.244,2172.8518,4.794
389800.00,0.026,0,0,357.471,1739.454,4.866
390000.00,0.006,0,0,408.493,1973.0212,4.83
390200.00,-0.002,0,0,413.01,1992.3602,4.824
390400.00,-0.005,0,0,357.52,1738.9772,4.864
390600.00,-0.011,0,0,445.646,2137.3181,4.796
390800.00,-0.004,0,0,418.617,2019.4083,4.824
391000.00,0.018,0,0,356.969,1736.2971,4.864
391200.00,-0.021,0,0,417.639,2016.3612,4.828
391400.00,0,0,0,413.505,1995.5752,4.826
391600.00,-0.013,0,0,356.92,1736.0588,4.864
391800.00,-0.004,0,0,413.295,1995.3883,4.828
392000.00,0,0,0,449.277,2155.6311,4.798
392200.00,0.015,0,0,411.243,1983.0138,4.822
392400.00,0.008,0,0,413.674,1997.2181,4.828
392600.00,0.014,0,0,357.197,1737.4061,4.864
392800.00,-0.001,0,0,410.93,1983.1482,4.826
393000.00,0.01,0,0,413.509,1996.4215,4.828
393200.00,0,0,0,356.944,1737.6034,4.868
393400.00,-0.006,0,0,412.045,1991.0015,4.832
393600.00,-0.013,0,0,367.784,1787.4303,4.86
393800.00,0.009,0,0,428.89,2068.1077,4.822
394000.00,-0.003,0,0,414.698,2000.5031,4.824
394200.00,-0.004,0,0,357.159,1736.5071,4.862
394400.00,-0.014,0,0,411.581,1987.113,4.828
394600.00,-0.008,0,0,402.712,1946.7098,4.834
394800.00,-0.006,0,0,361.015,1755.255,4.862
395000.00,0.012,0,0,409.512,1976.3049,4.826
395200.00,0.001,0,0,405.477,1959.2648,4.832
395400.00,0.009,0,0,450.543,2163.5076,4.802
395600.00,0.016,0,0,413.851,1995.5896,4.822
395800.00,-0.012,0,0,357.899,1740.1049,4.862
396000.00,-0.004,0,0,407.257,1966.2368,4.828
396200.00,-0.014,0,0,409.17,1976.2911,4.83
396400.00,-0.01,0,0,358.844,1744.6995,4.862
396600.00,0.009,0,0,408.755,1973.4692,4.828
396800.00,0.004,0,0,362.502,1761.7599,4.86
397000.00,-0.005,0,0,406.114,1963.1552,4.834
397200.00,0.037,0,0,406.003,1960.9944,4.83
397400.00,-0.006,0,0,357.159,1737.2213,4.864
397600.00,0.004,0,0,409.976,1979.3643,4.828
397800.00,0,0,0,453.572,2176.2383,4.798
398000.00,0.002,0,0,357.561,1738.4615,4.862
398200.00,0.01,0,0,410.132,1980.1173,4.828
398400.00,-0.006,0,0,409.174,1976.3104,4.83
398600.00,-0.006,0,0,357.615,1740.1547,4.866
398800.00,-0.003,0,0,415.456,2003.3289,4.822
399000.00,0,0,0,357.073,1737.5172,4.866
399200.00,-0.005,0,0,408.212,1970.0312,4.826
399400.00,-0.001,0,0,411.926,1987.955,4.826
399600.00,0.011,0,0,356.85,1735.7184,4.864
399800.00,-0.008,0,0,411.852,1988.4214,4.828
400000.00,0.002,0,0,357.351,1738.1553,4.864
400200.00,-0.024,0,0,417.389,2011.8151,4.82
400400.00,0,0,0,414.168,1998.7749,4.826
400600.00,0,0,0,399.926,1934.0421,4.836
400800.00,0,0,0,411.379,1985.3152,4.826
401000.00,-0.004,0,0,407.545,1966.8124,4.826
401200.00,-0.006,0,0,357.381,1738.3011,4.864
401400.00,0.012,0,0,413.785,1997.754,4.828
401600.00,0.009,0,0,406.368,1962.7574,4.83
401800.00,0.016,0,0,357.474,1738.7534,4.864
402000.00,0,0,0,413.151,1993.8668,4.826
402200.00,0.017,0,0,585.234,2752.9407,4.704
402400.00,-0.004,0,0,358.796,1745.1836,4.864
402600.00,0.004,0,0,409.913,1979.0599,4.828
402800.00,0.008,0,0,358.796,1744.4661,4.862
403000.00,0,0,0,408.736,1974.1948,4.83
403200.00,-0.001,0,0,410.748,1982.2699,4.826
403400.00,0.002,0,0,357.68,1740.4709,4.866
403600.00,-0.004,0,0,409.921,1978.2788,4.826
403800.00,-0.011,0,0,410.094,1979.9338,4.828
404000.00,-0.002,0,0,357.766,1741.6049,4.868
404200.00,-0.005,0,0,414.204,1998.9486,4.826
404400.00,-0.007,0,0,453.335,2163.3145,4.772
404600.00,0.002,0,0,357.798,1739.6139,4.862
404800.00,0.036,0,0,419.839,2025.3032,4.824
405000.00,0,0,0,357.271,1737.0516,4.862
405200.00,-0.006,0,0,409.227,1976.5663,4.83
405400.00,0.004,0,0,408.795,1973.6624,4.828
405600.00,0.004,0,0,449.063,2154.6042,4.798
405800.00,-0.019,0,0,613.236,2876.0769,4.69
406000.00,-0.009,0,0,357.524,1739.7118,4.866
406200.00,0.019,0,0,411.885,1986.9332,4.824
406400.00,0.005,0,0,413.365,1995.7262,4.828
406600.00,-0.003,0,0,357.018,1737.2496,4.866
406800.00,-0.018,0,0,412.785,1992.1005,4.826
407000.00,-0.019,0,0,357.178,1737.3137,4.864
407200.00,0.016,0,0,408.409,1972.6155,4.83
407400.00,-0.003,0,0,408.088,1971.8812,4.832
407600.00,-0.004,0,0,358.832,1745.3588,4.864
407800.00,-0.006,0,0,405.233,1957.2754,4.83
408000.00,0.005,0,0,406.862,1964.3297,4.828
408200.00,0.002,0,0,357.48,1740.2126,4.868
408400.00,0.003,0,0,408.779,1972.7675,4.826
408600.00,-0.008,0,0,413.567,1998.3556,4.832
408800.00,0.001,0,0,397.994,1924.6989,4.836
409000.00,0.016,0,0,408.071,1970.1669,4.828
409200.00,0.011,0,0,449.499,2156.696,4.798
409400.00,0.013,0,0,597.873,2812.3945,4.704
409600.00,0.012,0,0,374.682,1820.2051,4.858
409800.00,-0.005,0,0,412.95,1992.0708,4.824
410000.00,0.003,0,0,409.544,1978.0975,4.83
410200.00,-0.006,0,0,357.092,1737.6097,4.866
410400.00,0.01,0,0,412.485,1990.6526,4.826
410600.00,-0.011,0,0,409.251,1975.8639,4.828
410800.00,0.008,0,0,358.655,1743.7806,4.862
411000.00,-0.017,0,0,408.958,1973.6315,4.826
411200.00,0.021,0,0,409.576,1978.252,4.83
411400.00,-0.007,0,0,358.198,1742.9916,4.866
411600.00,-0.009,0,0,409.761,1978.326,4.828
411800.00,0.02,0,0,414.936,2000.8214,4.822
412000.00,-0.011,0,0,357.019,1736.5404,4.864
412200.00,-0.004,0,0,409.259,1976.7209,4.83
412400.00,0.012,0,0,358.08,1743.1334,4.868
412600.00,0,0,0,410.888,1985.4108,4.832
412800.00,0.012,0,0,600.673,2820.7603,4.696
413000.00,0.004,0,0,357.135,1737.819,4.866
413200.00,-0.011,0,0,408.721,1973.3051,4.828
413400.00,0.01,0,0,357.024,1737.2788,4.866
413600.00,0.012,0,0,409.708,1977.251,4.826
413800.00,0.004,0,0,410.547,1982.121,4.828
414000.00,-0.012,0,0,357.308,1737.2316,4.862
414200.00,-0.011,0,0,415.076,2001.4965,4.822
414400.00,-0.004,0,0,408.844,1973.0812,4.826
414600.00,0.002,0,0,357.592,1738.6123,4.862
414800.00,0,0,0,407.317,1966.5265,4.828
415000.00,-0.002,0,0,416.919,2012.0513,4.826
415200.00,-0.021,0,0,357.359,1738.1942,4.864
415400.00,0.024,0,0,415.697,2006.9851,4.828
415600.00,0.006,0,0,357.063,1737.4685,4.866
415800.00,0.008,0,0,411.209,1984.4948,4.826
416000.00,-0.011,0,0,418.009,2016.4753,4.824
416200.00,0,0,0,358.685,1744.6438,4.864
416400.00,-0.021,0,0,413.526,1996.5035,4.828
416600.00,-0.011,0,0,411.379,1985.3152,4.826
416800.00,0.015,0,0,357.26,1738.4272,4.866
417000.00,-0.018,0,0,454.758,2181.9287,4.798
417200.00,0.012,0,0,406.836,1964.2042,4.828
417400.00,0.003,0,0,357.445,1738.6124,4.864
417600.00,-0.008,0,0,410.81,1984.2123,4.83
417800.00,-0.001,0,0,357.161,1737.2311,4.864
418000.00,0.003,0,0,410.365,1981.2422,4.828
418200.00,0.03,0,0,405.676,1959.415,4.83
418400.00,-0.008,0,0,357.131,1738.5138,4.868
418600.00,0.001,0,0,406.955,1965.5925,4.83
418800.00,0.019,0,0,412.582,1991.9459,4.828
419000.00,0.014,0,0,357.198,1737.411,4.864
419200.00,-0.011,0,0,413.414,1994.3091,4.824
419400.00,-0.02,0,0,408.719,1972.4779,4.826
419600.00,-0.017,0,0,449.2,2157.0586,4.802
419800.00,-0.007,0,0,491.424,2344.0925,4.77
420000.00,0.025,0,0,411.686,1986.7968,4.826
420200.00,0,0,0,408.095,1970.2827,4.828
420400.00,-0.004,0,0,357.248,1738.3688,4.866
420600.00,0.01,0,0,408.267,1971.9296,4.83
420800.00,0.01,0,0,416.655,2009.9437,4.824
421000.00,0.001,0,0,357.526,1739.7216,4.866
421200.00,-0.002,0,0,407.3,1966.4443,4.828
421400.00,-0.007,0,0,422.192,2034.121,4.818
421600.00,-0.018,0,0,357.138,1738.5479,4.868
421800.00,0,0,0,406.725,1962.855,4.826
422000.00,0.019,0,0,415.129,2002.5823,4.824
422200.00,-0.011,0,0,358.21,1743.0499,4.866
422400.00,-0.001,0,0,412.891,1993.4377,4.828
422600.00,0.005,0,0,357.662,1738.9526,4.862
422800.00,-0.011,0,0,409.998,1978.6504,4.826
423000.00,0.013,0,0,405.728,1958.8547,4.828
423200.00,0.005,0,0,357.317,1737.9897,4.864
423400.00,-0.004,0,0,412.623,1991.3186,4.826
423600.00,-0.006,0,0,408.068,1971.7844,4.832
423800.00,0,0,0,357.231,1738.286,4.866
424000.00,0.002,0,0,408.767,1972.7096,4.826
424200.00,0,0,0,357.263,1739.1562,4.868
424400.00,0.004,0,0,416.555,2009.4612,4.824
424600.00,-0.011,0,0,412.47,1989.7552,4.824
424800.00,0.012,0,0,357.016,1736.5258,4.864
425000.00,0.012,0,0,414.272,1999.2767,4.826
425200.00,0,0,0,445.523,2139.4016,4.802
425400.00,-0.001,0,0,357.509,1739.6389,4.866
425600.00,-0.007,0,0,408.829,1972.191,4.824
425800.00,-0.001,0,0,409.57,1978.2231,4.83
426000.00,-0.001,0,0,357.472,1739.4587,4.866
426200.00,-0.011,0,0,411.89,1988.605,4.828
426400.00,-0.013,0,0,410.631,1982.5266,4.828
426600.00,-0.014,0,0,356.756,1736.6882,4.868
426800.00,-0.004,0,0,408.217,1972.5045,4.832
427000.00,0.007,0,0,357.268,1737.037,4.862
427200.00,0.009,0,0,420.674,2030.1729,4.826
427400.00,-0.018,0,0,410.035,1979.649,4.828
427600.00,0.014,0,0,357.027,1736.5793,4.864
427800.00,-0.014,0,0,411.792,1988.1317,4.828
428000.00,-0.005,0,0,454.236,2178.5159,4.796
428200.00,-0.001,0,0,356.921,1736.0636,4.864
428400.00,-0.01,0,0,424.554,2043.803,4.814
428600.00,0.006,0,0,406.263,1962.2502,4.83
428800.00,0.008,0,0,357.396,1739.089,4.866
429000.00,0.002,0,0,410.666,1981.8741,4.826
429200.00,0.004,0,0,357.599,1739.3615,4.864
429400.00,-0.012,0,0,414.882,2003.0503,4.828
429600.00,0.003,0,0,470.653,2261.0171,4.804
429800.00,-0.005,0,0,450.508,2162.4385,4.8
430000.00,0.012,0,0,595.919,2796.052,4.692
430200.00,0.012,0,0,357.648,1738.8846,4.862
430400.00,-0.004,0,0,411.259,1985.5585,4.828
430600.00,0.01,0,0,415.072,2001.4772,4.822
430800.00,-0.006,0,0,357.488,1738.1067,4.862
431000.00,-0.004,0,0,408.26,1971.0793,4.828
431200.00,-0.003,0,0,357.395,1738.3691,4.864
431400.00,-0.002,0,0,413.707,1995.7225,4.824
431600.00,0.007,0,0,412.67,1991.5455,4.826
431800.00,0.01,0,0,358.278,1744.0974,4.868
432000.00,0.002,0,0,410.962,1983.3027,4.826
432200.00,0.006,0,0,405.06,1957.2499,4.832
432400.00,-0.006,0,0,358.634,1744.3958,4.864
432600.00,0,0,0,409.022,1974.7583,4.828
432800.00,0.003,0,0,405.5,1958.5649,4.83
433000.00,-0.018,0,0,357.148,1737.1678,4.864
433200.00,-0.015,0,0,410.021,1978.7615,4.826
433400.00,-0.024,0,0,411.946,1989.6992,4.83
433600.00,0,0,0,357.042,1738.0804,4.868
433800.00,-0.004,0,0,405.653,1957.6815,4.826
434000.00,0.022,0,0,357.412,1738.4519,4.864
434200.00,-0.006,0,0,412.716,1991.7676,4.826
434400.00,0.016,0,0,407.052,1966.0612,4.83
434600.00,0.008,0,0,357.11,1737.6973,4.866
434800.00,-0.014,0,0,408.89,1974.9387,4.83
435000.00,0.009,0,0,409.483,1976.984,4.828
435200.00,0.006,0,0,357.418,1737.7664,4.862
435400.00,0.006,0,0,411.815,1987.4193,4.826
435600.00,0.002,0,0,417.097,2012.9102,4.826
435800.00,-0.002,0,0,357.097,1737.634,4.866
436000.00,-0.005,0,0,408.631,1974.505,4.832
436200.00,-0.012,0,0,397.488,1923.0469,4.838
436400.00,0.019,0,0,409.927,1979.9474,4.83
436600.00,-0.012,0,0,410.322,1980.214,4.826
436800.00,-0.007,0,0,449.33,2155.8853,4.798
437000.00,-0.003,0,0,572.39,2698.2466,4.714
437200.00,-0.013,0,0,362.299,1760.7732,4.86
437400.00,0.007,0,0,416.002,2006.7937,4.824
437600.00,0,0,0,412.621,1992.1343,4.828
437800.00,0,0,0,358.197,1741.5537,4.862
438000.00,-0.026,0,0,407.191,1964.2894,4.824
438200.00,0.022,0,0,405.393,1958.8589,4.832
438400.00,0,0,0,359.615,1748.4481,4.862
438600.00,0,0,0,414.242,1998.3033,4.824
438800.00,0.011,0,0,407.578,1968.6017,4.83
439000.00,-0.009,0,0,357.511,1740.3635,4.868
439200.00,0.012,0,0,414.398,1999.0559,4.824
439400.00,0.01,0,0,435.168,2102.7317,4.832
439600.00,0.026,0,0,420.152,2028.4939,4.828
439800.00,0.007,0,0,411.846,1986.7451,4.824
440000.00,-0.008,0,0,357.612,1740.14,4.866
440200.00,0.011,0,0,414.94,2001.6705,4.824
440400.00,0.02,0,0,467.552,2236.7688,4.784
440600.00,0.012,0,0,409.403,1974.9601,4.824
440800.00,0.002,0,0,408.465,1973.7028,4.832
441000.00,0,0,0,357.013,1737.9393,4.868
441200.00,-0.012,0,0,405.436,1957.4451,4.828
441400.00,0.009,0,0,412.212,1988.5106,4.824
441600.00,-0.004,0,0,356.89,1736.6268,4.866
441800.00,-0.01,0,0,408.576,1973.422,4.83
442000.00,0.001,0,0,404.935,1955.8361,4.83
442200.00,0.019,0,0,358.976,1745.3414,4.862
442400.00,0,0,0,419.782,2024.1888,4.822
442600.00,0.003,0,0,409.032,1973.9885,4.826
442800.00,-0.004,0,0,357.137,1737.1143,4.864
443000.00,-0.008,0,0,411.291,1984.8904,4.826
443200.00,-0.012,0,0,479.234,2298.4062,4.796
443400.00,-0.01,0,0,359.08,1745.1288,4.86
443600.00,-0.004,0,0,414.689,2001.2892,4.826
443800.00,-0.003,0,0,357.549,1738.4033,4.862
444000.00,0,0,0,412.48,1988.9786,4.822
444200.00,0.003,0,0,411.021,1985.2313,4.83
444400.00,0,0,0,397.545,1922.5277,4.836
444600.00,0.015,0,0,417.081,2013.6671,4.828
444800.00,0.001,0,0,441.946,2126.644,4.812
445000.00,-0.012,0,0,358.157,1741.3594,4.862
445200.00,-0.008,0,0,413.165,1993.1079,4.824
445400.00,-0.001,0,0,357.577,1739.2544,4.864
445600.00,-0.006,0,0,408.5,1971.4211,4.826
445800.00,-0.017,0,0,411.605,1986.4059,4.826
446000.00,-0.013,0,0,422.823,2003.3353,4.738
446200.00,-0.007,0,0,410.927,1983.9556,4.828
446400.00,-0.001,0,0,418.059,2015.8805,4.822
446600.00,0.009,0,0,357.06,1737.454,4.866
446800.00,0.012,0,0,410.302,1980.1176,4.826
447000.00,0.025,0,0,357.596,1739.3469,4.864
447200.00,0.001,0,0,620.321,2903.1021,4.68
447400.00,-0.012,0,0,406.233,1963.7303,4.834
447600.00,-0.004,0,0,358.104,1741.8179,4.864
447800.00,-0.003,0,0,410.614,1980.802,4.824
448000.00,-0.019,0,0,356.845,1736.4078,4.866
448200.00,0.004,0,0,417.207,2014.2754,4.828
448400.00,0,0,0,412.962,1993.7806,4.828
448600.00,0.005,0,0,357.735,1740.0229,4.864
448800.00,-0.001,0,0,408.087,1970.2441,4.828
449000.00,-0.011,0,0,407.584,1967.0005,4.826
449200.00,0.025,0,0,357.6,1739.3663,4.864
449400.00,-0.001,0,0,413.829,1996.311,4.824
449600.00,-0.002,0,0,406.066,1962.9231,4.834
449800.00,-0.002,0,0,357.353,1737.4503,4.862
450000.00,0.014,0,0,405.066,1956.4688,4.83
450200.00,0.001,0,0,357.674,1740.4418,4.866
450400.00,-0.005,0,0,410.472,1983.4005,4.832
450600.00,-0.013,0,0,584.231,2745.8857,4.7
450800.00,0.02,0,0,357.798,1740.3295,4.864
451000.00,0,0,0,424.447,2045.8346,4.82
451200.00,-0.001,0,0,358.827,1744.6168,4.862
451400.00,0.005,0,0,408.971,1974.5121,4.828
451600.00,-0.017,0,0,409.97,1979.3352,4.828
451800.00,-0.004,0,0,357.47,1738.734,4.864
452000.00,-0.006,0,0,411.834,1987.511,4.826
452200.00,-0.005,0,0,409.909,1979.0406,4.828
452400.00,0.002,0,0,356.877,1736.5636,4.866
452600.00,0.003,0,0,410.484,1982.6377,4.83
452800.00,-0.007,0,0,410.163,1980.267,4.828
453000.00,0.006,0,0,357.452,1739.3615,4.866
453200.00,0.005,0,0,410.139,1980.1511,4.828
453400.00,-0.003,0,0,413.162,1995.5724,4.83
453600.00,0.003,0,0,357.538,1738.3497,4.862
453800.00,0.001,0,0,411.311,1985.8096,4.828
454000.00,-0.002,0,0,449.652,2159.229,4.802
454200.00,0.008,0,0,408.951,1975.2333,4.83
454400.00,-0.003,0,0,412.345,1989.1522,4.824
454600.00,0.01,0,0,359.586,1748.3071,4.862
454800.00,-0.007,0,0,413.48,1996.2815,4.828
455000.00,0.002,0,0,411.209,1984.4948,4.826
455200.00,-0.02,0,0,357.29,1737.8585,4.864
455400.00,0.006,0,0,456.02,2187.0718,4.796
455600.00,0,0,0,422.864,2032.2845,4.806
455800.00,-0.012,0,0,377.412,1825.9191,4.838
456000.00,-0.001,0,0,406.968,1965.6554,4.83
456200.00,0.011,0,0,357.999,1741.307,4.864
456400.00,0.013,0,0,417.964,2017.0944,4.826
456600.00,0,0,0,404.492,1955.3145,4.834
456800.00,0.013,0,0,357.005,1735.7583,4.862
457000.00,-0.012,0,0,409.498,1977.0563,4.828
457200.00,0.006,0,0,405.895,1961.2845,4.832
457400.00,0.016,0,0,449.483,2158.4175,4.802
457600.00,-0.004,0,0,408.116,1969.5679,4.826
457800.00,0.007,0,0,369.575,1797.6128,4.864
458000.00,-0.014,0,0,412.124,1989.7346,4.828
458200.00,-0.008,0,0,406.422,1961.3927,4.826
458400.00,-0.013,0,0,372.646,1810.3142,4.858
458600.00,0.008,0,0,411.47,1986.5771,4.828
458800.00,-0.003,0,0,359.59,1749.0457,4.864
459000.00,0.018,0,0,414.488,1998.6611,4.822
459200.00,-0.007,0,0,409.737,1979.0297,4.83
459400.00,-0.003,0,0,357.598,1740.0719,4.866
459600.00,-0.012,0,0,411.971,1988.1721,4.826
459800.00,0.001,0,0,413.427,1995.1989,4.826
460000.00,0,0,0,356.993,1736.4139,4.864
460200.00,-0.007,0,0,414.513,1998.7817,4.822
460400.00,-0.001,0,0,406.455,1961.5519,4.826
460600.00,0.009,0,0,358.135,1742.6851,4.866
460800.00,0.013,0,0,416.854,2010.0701,4.822
461000.00,-0.007,0,0,358.771,1744.3446,4.862
461200.00,-0.021,0,0,414.566,1999.8663,4.824
461400.00,0.015,0,0,406.959,1966.4259,4.832
461600.00,0.023,0,0,357.47,1738.734,4.864
461800.00,0.009,0,0,409.045,1975.6874,4.83
462000.00,0.006,0,0,360.159,1752.5337,4.866
462200.00,0.024,0,0,418.89,2008.1588,4.794
462400.00,0,0,0,412.448,1991.299,4.828
462600.00,-0.011,0,0,358.012,1741.3702,4.864
462800.00,-0.007,0,0,407.511,1968.2781,4.83
463000.00,-0.008,0,0,415.43,2004.0342,4.824
463200.00,-0.003,0,0,357.858,1741.3372,4.866
463400.00,0,0,0,412.443,1989.625,4.824
463600.00,0.009,0,0,455.823,2187.0386,4.798
463800.00,0.005,0,0,357.118,1738.4504,4.868
464000.00,-0.014,0,0,409.205,1975.6417,4.828
464200.00,0.014,0,0,592.55,2784.9849,4.7
464400.00,-0.005,0,0,357.174,1737.2943,4.864
464600.00,0.015,0,0,408.527,1971.5514,4.826
464800.00,-0.004,0,0,357.285,1739.2634,4.868
465000.00,0.014,0,0,407.095,1967.083,4.832
465200.00,-0.003,0,0,413.537,1995.7296,4.826
465400.00,0,0,0,360.265,1752.329,4.864
465600.00,-0.001,0,0,416.541,2011.0599,4.828
465800.00,0,0,0,416.713,2009.3901,4.822
466000.00,0.004,0,0,359.457,1749.8367,4.868
466200.00,0,0,0,412.55,1990.1411,4.824
466400.00,0.004,0,0,426.019,2061.9321,4.84
466600.00,-0.01,0,0,427.339,2059.7739,4.82
466800.00,-0.014,0,0,411.394,1986.2103,4.828
467000.00,0.004,0,0,357.272,1737.0565,4.862
467200.00,-0.023,0,0,407.7,1970.0063,4.832
467400.00,0.025,0,0,403.326,1948.0645,4.83
467600.00,-0.007,0,0,449.126,2155.8049,4.8
467800.00,0.012,0,0,585.601,2757.0098,4.708
468000.00,0.011,0,0,357.353,1739.5944,4.868
468200.00,-0.022,0,0,422.271,2035.3463,4.82
468400.00,-0.007,0,0,408.83,1973.8312,4.828
468600.00,0.006,0,0,357.112,1737.707,4.866
468800.00,0.009,0,0,412.439,1990.4307,4.826
469000.00,0.012,0,0,411.197,1984.4368,4.826
469200.00,0.002,0,0,357.266,1738.4564,4.866
469400.00,-0.012,0,0,412.139,1990.6313,4.83
469600.00,-0.012,0,0,414.554,2002.2958,4.83
469800.00,0.005,0,0,357.241,1737.6201,4.864
470000.00,0.003,0,0,406.712,1962.7922,4.826
470200.00,0,0,0,357.112,1736.2786,4.862
470400.00,-0.006,0,0,409.991,1978.6167,4.826
470600.00,-0.006,0,0,412.533,1990.0591,4.824
470800.00,0.007,0,0,357.057,1736.7252,4.864
471000.00,-0.011,0,0,412.73,1991.0095,4.824
471200.00,0.013,0,0,357.606,1740.8259,4.868
471400.00,-0.003,0,0,413.747,1995.0881,4.822
471600.00,0,0,0,408.588,1972.663,4.828
471800.00,0.004,0,0,398.394,1925.8367,4.834
472000.00,0.013,0,0,411.839,1987.535,4.826
472200.00,0.012,0,0,408.975,1976.1671,4.832
472400.00,0,0,0,357.648,1739.5999,4.864
472600.00,0.007,0,0,419.897,2024.7434,4.822
472800.00,0,0,0,366.127,1780.1095,4.862
473000.00,0.007,0,0,413.916,1997.5586,4.826
473200.00,0.015,0,0,413.361,1994.8802,4.826
473400.00,0.012,0,0,357.715,1740.6412,4.866
473600.00,-0.002,0,0,408.239,1970.1616,4.826
473800.00,-0.006,0,0,408.277,1972.7944,4.832
474000.00,-0.013,0,0,358.468,1745.0222,4.868
474200.00,0,0,0,588.455,2766.9155,4.702
474400.00,-0.016,0,0,358.468,1743.5883,4.864
474600.00,0.006,0,0,448.237,2153.3306,4.804
474800.00,-0.011,0,0,407.553,1968.481,4.83
475000.00,-0.004,0,0,357.45,1738.6368,4.864
475200.00,-0.007,0,0,406.134,1960.8149,4.828
475400.00,0.001,0,0,357.233,1736.8668,4.862
475600.00,0.009,0,0,413.271,1994.4459,4.826
475800.00,0.003,0,0,410.771,1981.5592,4.824
476000.00,-0.009,0,0,357.732,1741.4393,4.868
476200.00,-0.021,0,0,410.043,1979.6876,4.828
476400.00,-0.008,0,0,413.984,1998.7148,4.828
476600.00,-0.004,0,0,357.318,1737.28,4.862
476800.00,0.008,0,0,408.825,1972.9896,4.826
477000.00,-0.002,0,0,408.542,1972.4408,4.828
477200.00,-0.007,0,0,356.787,1736.1255,4.866
477400.00,-0.013,0,0,411.043,1982.8713,4.824
477600.00,0.004,0,0,449.531,2158.6479,4.802
477800.00,0.018,0,0,407.662,1969.0073,4.83
478000.00,-0.005,0,0,410.377,1981.3003,4.828
478200.00,-0.004,0,0,357.601,1740.0865,4.866
478400.00,0.003,0,0,405.901,1959.6901,4.828
478600.00,0.001,0,0,406.567,1962.9054,4.828
478800.00,0.023,0,0,357.015,1735.807,4.862
479000.00,-0.005,0,0,411.36,1985.2234,4.826
479200.00,-0.007,0,0,412.236,1989.4509,4.826
479400.00,-0.02,0,0,357.237,1737.6007,4.864
479600.00,-0.015,0,0,410.459,1980.8752,4.826
479800.00,-0.011,0,0,415.119,2002.5339,4.824
480000.00,0.006,0,0,360.119,1750.8986,4.862
480200.00,-0.012,0,0,411.985,1989.0635,4.828
480400.00,0.007,0,0,357.713,1739.2007,4.862
480600.00,0.012,0,0,406.024,1961.0958,4.83
480800.00,0.002,0,0,411.383,1985.3345,4.826
481000.00,-0.023,0,0,450.083,2160.3984,4.8
481200.00,-0.011,0,0,412.987,1992.2493,4.824
481400.00,0.018,0,0,410.737,1983.8596,4.83
481600.00,-0.005,0,0,357.314,1739.4045,4.868
481800.00,-0.009,0,0,414.496,2002.0156,4.83
482000.00,-0.011,0,0,413.386,1996.6543,4.83
482200.00,-0.009,0,0,358.061,1741.6086,4.864
482400.00,-0.012,0,0,407.396,1968.5374,4.832
482600.00,0.005,0,0,357.944,1741.7556,4.866
482800.00,0.012,0,0,451.734,2167.4197,4.798
483000.00,-0.01,0,0,415.783,2007.4003,4.828
483200.00,-0.014,0,0,357.482,1738.7924,4.864
483400.00,0.004,0,0,408.218,1970.8765,4.828
483600.00,0.004,0,0,406.157,1961.7383,4.83
483800.00,0.015,0,0,357.329,1739.4777,4.868
484000.00,-0.015,0,0,409.954,1977.618,4.824
484200.00,0.01,0,0,409.448,1977.6338,4.83
484400.00,0.009,0,0,357.551,1739.1279,4.864
484600.00,0.019,0,0,408.596,1973.5187,4.83
484800.00,-0.004,0,0,409.312,1976.1584,4.828
485000.00,-0.01,0,0,358.279,1743.3856,4.866
485200.00,0.013,0,0,413.212,1994.1613,4.826
485400.00,0,0,0,357.316,1737.985,4.864
485600.00,-0.009,0,0,410.213,1980.5084,4.828
485800.00,0.011,0,0,417.087,2012.8619,4.826
486000.00,-0.006,0,0,356.711,1734.3289,4.862
486200.00,0.017,0,0,411.706,1986.0697,4.824
486400.00,0.015,0,0,408.769,1975.9895,4.834
486600.00,-0.016,0,0,357.798,1741.0452,4.866
486800.00,-0.004,0,0,412.373,1990.1121,4.826
487000.00,-0.003,0,0,480.252,2296.5652,4.782
487200.00,0.001,0,0,357.156,1737.2068,4.864
487400.00,0.01,0,0,409.608,1979.2258,4.832
487600.00,-0.001,0,0,367.53,1786.1958,4.86
487800.00,0,0,0,593.61,2788.7798,4.698
488000.00,0.015,0,0,357.26,1736.9982,4.862
488200.00,0.002,0,0,411.481,1984.9843,4.824
488400.00,0,0,0,407.754,1970.2672,4.832
488600.00,-0.011,0,0,357.235,1739.0199,4.868
488800.00,0.017,0,0,412.681,1991.5986,4.826
489000.00,-0.02,0,0,409.65,1978.6095,4.83
489200.00,-0.009,0,0,357.353,1739.5944,4.868
489400.00,0.019,0,0,408.065,1970.954,4.83
489600.00,0.016,0,0,413.429,1996.0352,4.828
489800.00,-0.009,0,0,357.952,1741.7944,4.866
490000.00,-0.015,0,0,408.925,1975.1077,4.83
490200.00,-0.008,0,0,357.379,1738.2914,4.864
490400.00,0.001,0,0,412.24,1989.4703,4.826
490600.00,0.001,0,0,408.142,1971.3258,4.83
490800.00,0.017,0,0,357.323,1739.4484,4.868
491000.00,0.007,0,0,451.714,2167.3237,4.798
491200.00,-0.003,0,0,626.328,2924.9519,4.67
491400.00,0.012,0,0,356.724,1735.1055,4.864
491600.00,0.008,0,0,420.358,2026.9663,4.822
491800.00,0.003,0,0,357.507,1738.9139,4.864
492000.00,-0.019,0,0,407.786,1970.4219,4.832
492200.00,-0.004,0,0,407.564,1969.3491,4.832
492400.00,-0.004,0,0,357.223,1738.2472,4.866
492600.00,-0.011,0,0,409.464,1976.0732,4.826
492800.00,-0.003,0,0,405.831,1960.1637,4.83
493000.00,0,0,0,357.242,1737.625,4.864
493200.00,0.016,0,0,409.369,1976.4335,4.828
493400.00,-0.006,0,0,357.052,1736.7009,4.864
493600.00,-0.007,0,0,412.121,1989.7202,4.828
493800.00,0.008,0,0,415.936,2007.3073,4.826
494000.00,-0.012,0,0,363.72,1768.4066,4.862
494200.00,-0.008,0,0,413.131,1993.7704,4.826
494400.00,-0.007,0,0,411.65,1988.2694,4.83
494600.00,-0.022,0,0,449.166,2155.0984,4.798
494800.00,-0.008,0,0,411.761,1987.9821,4.828
495000.00,-0.011,0,0,415.155,2003.5381,4.826
495200.00,0.002,0,0,359.763,1749.1677,4.862
495400.00,0.003,0,0,419.75,2022.3555,4.818
495600.00,-0.01,0,0,413.358,1994.0389,4.824
495800.00,-0.009,0,0,357.258,1738.4175,4.866
496000.00,0.009,0,0,409.372,1976.4481,4.828
496200.00,0.002,0,0,357.635,1739.5366,4.864
496400.00,-0.005,0,0,404.961,1957.5815,4.834
496600.00,-0.011,0,0,408.627,1972.8512,4.828
496800.00,0.011,0,0,357.067,1736.7738,4.864
497000.00,-0.001,0,0,409.207,1975.6514,4.828
497200.00,0,0,0,407.249,1967.827,4.832
497400.00,0.012,0,0,357.245,1739.0686,4.868
497600.00,-0.013,0,0,410.458,1982.5122,4.83
497800.00,-0.02,0,0,410.038,1977.2032,4.822
498000.00,0.002,0,0,449.26,2157.3467,4.802
498200.00,0.014,0,0,450.819,2127.8655,4.72
498400.00,-0.014,0,0,359.638,1742.8058,4.846
498600.00,-0.012,0,0,411.762,1987.1635,4.826
498800.00,-0.023,0,0,357.942,1741.0298,4.864
499000.00,0.001,0,0,412.819,1993.0902,4.828
499200.00,-0.01,0,0,449.491,2158.4558,4.802
499400.00,-0.003,0,0,357.714,1741.3517,4.868
499600.00,-0.004,0,0,417.911,2017.6744,4.828
499800.00,0.013,0,0,413.049,1993.3746,4.826
500000.00,-0.009,0,0,356.628,1734.6385,4.864
500200.00,0.003,0,0,407.43,1968.7017,4.832
500400.00,0.03,0,0,409.984,1981.0426,4.832
500600.00,0.018,0,0,361.023,1755.2938,4.862
500800.00,0.012,0,0,407.437,1967.9208,4.83
501000.00,-0.006,0,0,415.373,2005.4208,4.828
501200.00,0.002,0,0,356.863,1736.4955,4.866
501400.00,0.001,0,0,413.543,1994.9314,4.824
501600.00,-0.002,0,0,356.875,1736.5538,4.866
501800.00,-0.014,0,0,407.545,1969.2574,4.832
502000.00,-0.004,0,0,491.902,2353.2593,4.784
502200.00,0.011,0,0,357.419,1738.486,4.864
502400.00,-0.007,0,0,407.183,1966.694,4.83
502600.00,0.018,0,0,357.857,1739.9008,4.862
502800.00,-0.001,0,0,410.046,1978.8821,4.826
503000.00,0.012,0,0,410.128,1980.098,4.828
503200.00,-0.011,0,0,356.895,1735.2234,4.862
503400.00,-0.008,0,0,405.076,1956.517,4.83
503600.00,0.001,0,0,409.802,1979.3436,4.83
503800.00,0.009,0,0,361.277,1757.2513,4.864
504000.00,0.017,0,0,421.44,2031.3409,4.82
504200.00,0.003,0,0,407.001,1965.0009,4.828
504400.00,-0.012,0,0,356.636,1735.3907,4.866
504600.00,-0.009,0,0,410.913,1984.7097,4.83
504800.00,-0.007,0,0,449.442,2158.2205,4.802
505000.00,0.002,0,0,410.913,1983.0662,4.826
505200.00,-0.005,0,0,413.282,1995.3256,4.828
505400.00,0.02,0,0,357.685,1740.4952,4.866
505600.00,0.002,0,0,411.226,1984.5768,4.826
505800.00,-0.016,0,0,411.609,1988.0715,4.83
506000.00,0.006,0,0,358.135,1741.2524,4.862
506200.00,-0.01,0,0,409.103,1975.9674,4.83
506400.00,-0.013,0,0,408.523,1973.1661,4.83
506600.00,0.01,0,0,357.525,1738.2865,4.862
506800.00,0.003,0,0,408.104,1970.3262,4.828
507000.00,-0.012,0,0,373.549,1816.1953,4.862
507200.00,-0.017,0,0,414.34,1997.9475,4.822
507400.00,-0.01,0,0,414.25,1998.3419,4.824
507600.00,0.004,0,0,359.307,1748.3879,4.866
507800.00,0,0,0,411.687,1985.9781,4.824
508000.00,0.012,0,0,411.514,1987.6127,4.83
508200.00,-0.006,0,0,449.203,2157.0728,4.802
508400.00,0.007,0,0,630.797,2957.1765,4.688
508600.00,0.02,0,0,356.813,1736.2521,4.866
508800.00,0.006,0,0,416.356,2007.6686,4.822
509000.00,-0.013,0,0,526.631,2523.6155,4.792
509200.00,-0.005,0,0,357.116,1738.4407,4.868
509400.00,-0.016,0,0,412.724,1993.4569,4.83
509600.00,-0.007,0,0,532.515,2530.5112,4.752
509800.00,0.003,0,0,358.19,1742.2361,4.864
510000.00,-0.012,0,0,415.895,2005.4457,4.822
510200.00,-0.012,0,0,398.075,1925.8868,4.838
510400.00,0.01,0,0,408.047,1970.8669,4.83
510600.00,-0.004,0,0,406.038,1961.1635,4.83
510800.00,0.024,0,0,359.672,1750.1639,4.866
511000.00,0.008,0,0,408.432,1971.9098,4.828
511200.00,-0.019,0,0,410.197,1979.6107,4.826
511400.00,0.004,0,0,358.697,1744.7021,4.864
511600.00,0.012,0,0,408.395,1971.7311,4.828
511800.00,0,0,0,358.734,1744.1648,4.862
512000.00,0.006,0,0,416.314,2008.2987,4.824
512200.00,0.007,0,0,410.871,1983.6852,4.828
512400.00,0.02,0,0,357.396,1738.374,4.864
512600.00,-0.001,0,0,410.501,1981.8989,4.828
512800.00,0,0,0,464.569,2226.2146,4.792
513000.00,0.008,0,0,357.877,1740.7137,4.864
513200.00,-0.019,0,0,406.268,1962.2744,4.83
513400.00,0.002,0,0,356.995,1736.4236,4.864
513600.00,0.004,0,0,409.011,1974.7051,4.828
513800.00,0.012,0,0,414.927,2002.4377,4.826
514000.00,0.013,0,0,357.847,1740.5676,4.864
514200.00,0,0,0,410.558,1982.1741,4.828
514400.00,0,0,0,411.509,1985.1194,4.824
514600.00,-0.01,0,0,360.044,1751.254,4.864
514800.00,-0.002,0,0,411.274,1984.8083,4.826
515000.00,0,0,0,419.728,2023.9285,4.822
515200.00,0,0,0,356.86,1736.4807,4.866
515400.00,-0.003,0,0,408.078,1970.2007,4.828
515600.00,0.006,0,0,356.915,1736.7485,4.866
515800.00,0,0,0,418.877,2019.825,4.822
516000.00,0.003,0,0,407.505,1968.2491,4.83
516200.00,-0.015,0,0,357.558,1738.447,4.862
516400.00,0,0,0,412.183,1989.1953,4.826
516600.00,0.006,0,0,404.054,1950.7727,4.828
516800.00,0.013,0,0,357.415,1739.8962,4.868
517000.00,0.007,0,0,411.262,1984.7505,4.826
517200.00,0,0,0,409.682,1976.3059,4.824
517400.00,-0.002,0,0,360.451,1752.5127,4.862
517600.00,-0.001,0,0,410.163,1979.4467,4.826
517800.00,-0.017,0,0,358.316,1735.6827,4.844
518000.00,-0.003,0,0,412.402,1990.2522,4.826
518200.00,0.018,0,0,406.7,1963.5477,4.828
518400.00,0.001,0,0,491.807,2346.9031,4.772
518600.00,0.002,0,0,611.766,2865.512,4.684
518800.00,-0.021,0,0,357.618,1740.1693,4.866
519000.00,-0.006,0,0,410.864,1982.8298,4.826
519200.00,0,0,0,410.814,1983.41,4.828
519400.00,0,0,0,357.241,1737.6201,4.864
519600.00,0.008,0,0,406.327,1961.7467,4.828
519800.00,0.004,0,0,413.398,1994.2319,4.824
520000.00,0,0,0,358.246,1742.5085,4.864
520200.00,-0.001,0,0,411.942,1988.856,4.828
520400.00,0.011,0,0,409.967,1978.5009,4.826
520600.00,0.013,0,0,359.443,1747.6118,4.862
520800.00,-0.01,0,0,408.98,1974.5555,4.828
521000.00,0.027,0,0,357.407,1737.7129,4.862
521200.00,-0.012,0,0,420.215,2025.4364,4.82
521400.00,0.003,0,0,410.071,1980.6429,4.83
521600.00,-0.012,0,0,362.664,1763.2723,4.862
521800.00,-0.004,0,0,415.323,2002.6875,4.822
522000.00,0.011,0,0,449.171,2156.9192,4.802
522200.00,0.003,0,0,412.468,1990.5706,4.826
522400.00,0,0,0,408.457,1970.3965,4.824
522600.00,0.004,0,0,360.203,1752.7479,4.866
522800.00,0.003,0,0,410.012,1978.718,4.826
523000.00,0.006,0,0,403.817,1950.436,4.83
523200.00,-0.007,0,0,357.216,1738.2131,4.866
523400.00,-0.011,0,0,410.691,1981.9949,4.826
523600.00,0.005,0,0,410.942,1984.028,4.828
523800.00,0.004,0,0,357.111,1736.9878,4.864
524000.00,0.006,0,0,412.846,1993.2206,4.828
524200.00,0.004,0,0,357.223,1738.9615,4.868
524400.00,0.012,0,0,411.126,1983.2719,4.824
524600.00,0.002,0,0,412.595,1990.3583,4.824
524800.00,0.013,0,0,356.909,1736.7192,4.866
525000.00,-0.012,0,0,414.261,2000.0521,4.828
525200.00,-0.007,0,0,409.978,1980.1937,4.83
525400.00,0.002,0,0,357.958,1741.1077,4.864
525600.00,-0.005,0,0,410.978,1984.2018,4.828
525800.00,0,0,0,411.36,1985.2234,4.826
526000.00,0.009,0,0,356.89,1735.913,4.864
526200.00,-0.011,0,0,420.461,2027.4629,4.822
526400.00,0.01,0,0,359.395,1749.5348,4.868
526600.00,-0.013,0,0,458.46,2199.6909,4.798
526800.00,-0.001,0,0,408.255,1971.8716,4.83
527000.00,-0.008,0,0,357.266,1737.7417,4.864
527200.00,-0.013,0,0,410.864,1985.2948,4.832
527400.00,-0.003,0,0,411.612,1986.4396,4.826
527600.00,0.004,0,0,356.594,1734.4731,4.864
527800.00,-0.002,0,0,404.207,1952.3198,4.83
528000.00,-0.007,0,0,408.724,1974.1368,4.83
528200.00,-0.016,0,0,356.964,1736.2728,4.864
528400.00,-0.009,0,0,411.97,1988.9912,4.828
528600.00,0.002,0,0,358.976,1746.7773,4.866
528800.00,0.002,0,0,575.752,2709.489,4.706
529000.00,0,0,0,449.15,2155.9202,4.8
529200.00,-0.007,0,0,422.572,2036.7971,4.82
529400.00,0.003,0,0,450.042,2160.2017,4.8
529600.00,-0.024,0,0,357.03,1736.5939,4.864
529800.00,0.001,0,0,414.254,1999.1899,4.826
530000.00,0.008,0,0,410.544,1981.2855,4.826
530200.00,-0.012,0,0,356.931,1736.8263,4.866
530400.00,-0.007,0,0,412.793,1992.1392,4.826
530600.00,0,0,0,414.027,1998.0945,4.826
530800.00,0,0,0,357.321,1738.0094,4.864
531000.00,-0.009,0,0,412.332,1989.0895,4.824
531200.00,-0.008,0,0,358.29,1742.006,4.862
531400.00,0.012,0,0,411.855,1987.6124,4.826
531600.00,0.012,0,0,408.091,1971.8956,4.832
531800.00,0,0,0,357.111,1736.2737,4.862
532000.00,0.002,0,0,409.666,1977.8674,4.828
532200.00,0.004,0,0,408.457,1972.0304,4.828
532400.00,-0.018,0,0,358.53,1743.1729,4.862
532600.00,-0.009,0,0,416.175,2003.4664,4.814
532800.00,-0.008,0,0,471.919,2268.9866,4.808
533000.00,0.003,0,0,357.179,1737.3185,4.864
533200.00,0.014,0,0,406.988,1966.5659,4.832
533400.00,0.011,0,0,357.229,1738.2764,4.866
533600.00,0.006,0,0,412.048,1990.1918,4.83
533800.00,0.001,0,0,412.752,1991.1157,4.824
534000.00,0.001,0,0,357.316,1738.6997,4.866
534200.00,-0.01,0,0,414.113,1997.6812,4.824
534400.00,-0.003,0,0,409.805,1979.358,4.83
534600.00,0.003,0,0,356.711,1735.7557,4.866
534800.00,0.007,0,0,409.62,1976.8262,4.826
535000.00,0,0,0,409.917,1974.98,4.818
535200.00,0.014,0,0,357.279,1738.5197,4.866
535400.00,0.005,0,0,412.673,1991.5601,4.826
535600.00,0.008,0,0,415.092,2000.7435,4.82
535800.00,0.011,0,0,356.976,1735.6174,4.862
536000.00,-0.006,0,0,417.079,2011.155,4.822
536200.00,-0.007,0,0,357.026,1737.2886,4.866
536400.00,-0.003,0,0,413.253,1993.5323,4.824
536600.00,-0.01,0,0,407.798,1968.8488,4.828
536800.00,-0.003,0,0,357.013,1736.5112,4.864
537000.00,0.005,0,0,408.667,1974.6788,4.832
537200.00,0.009,0,0,412.036,1987.6616,4.824
537400.00,0.017,0,0,357.031,1737.313,4.866
537600.00,0.003,0,0,454.502,2178.8828,4.794
537800.00,0.003,0,0,409.98,1976.9236,4.822
538000.00,0.006,0,0,357.333,1739.4971,4.868
538200.00,-0.001,0,0,409.7,1979.6704,4.832
538400.00,-0.005,0,0,357.264,1737.0176,4.862
538600.00,0,0,0,411.045,1984.5254,4.828
538800.00,-0.006,0,0,405.87,1960.3521,4.83
539000.00,0.014,0,0,450.026,2159.2246,4.798
539200.00,-0.008,0,0,586.331,2756.9285,4.702
539400.00,0.001,0,0,357.352,1738.16,4.864
539600.00,0.002,0,0,408.889,1974.9338,4.83
539800.00,-0.017,0,0,493.022,2351.7148,4.77
540000.00,0.007,0,0,358.53,1744.6071,4.866
540200.00,0.004,0,0,430.762,2071.9651,4.81
540400.00,-0.007,0,0,417.063,2013.5801,4.828
540600.00,-0.012,0,0,357.172,1737.999,4.866
540800.00,-0.002,0,0,409.733,1979.0104,4.83
541000.00,0.002,0,0,356.975,1737.0404,4.866
541200.00,-0.008,0,0,412.189,1990.8728,4.83
541400.00,0,0,0,412.978,1994.6837,4.83
541600.00,-0.001,0,0,357,1737.1621,4.866
541800.00,0.013,0,0,410.337,1981.1071,4.828
542000.00,0.007,0,0,413.373,1994.9381,4.826
542200.00,0.004,0,0,357.024,1736.5646,4.864
542400.00,-0.013,0,0,412.011,1989.1891,4.828
542600.00,0.01,0,0,449.171,2156.9192,4.802
542800.00,-0.014,0,0,406.515,1962.6545,4.828
543000.00,0.003,0,0,409.07,1975.8081,4.83
543200.00,-0.012,0,0,356.865,1736.5051,4.866
543400.00,0.009,0,0,408.28,1970.3594,4.826
543600.00,-0.015,0,0,406.947,1964.7401,4.828
543800.00,-0.004,0,0,359.617,1748.4579,4.862
544000.00,-0.008,0,0,409.6,1976.7297,4.826
544200.00,-0.011,0,0,357.272,1737.771,4.864
544400.00,-0.004,0,0,410.654,1982.6375,4.828
544600.00,-0.002,0,0,410.493,1981.8602,4.828
544800.00,0.006,0,0,357.13,1737.0803,4.864
545000.00,-0.013,0,0,413.356,1995.6827,4.828
545200.00,0.012,0,0,404.915,1955.7395,4.83
545400.00,-0.002,0,0,357.038,1735.9187,4.862
545600.00,0.004,0,0,408.297,1972.0745,4.83
545800.00,-0.009,0,0,454.382,2181.0337,4.8
546000.00,0.007,0,0,357.315,1737.9801,4.864
546200.00,-0.009,0,0,412.382,1989.3307,4.824
546400.00,0.005,0,0,410.703,1982.0527,4.826
546600.00,0.002,0,0,356.945,1737.6083,4.868
546800.00,0.001,0,0,415.553,2003.7966,4.822
547000.00,-0.012,0,0,357.327,1738.7532,4.866
547200.00,0,0,0,413.64,1996.2268,4.826
547400.00,0.012,0,0,416.027,2006.9142,4.824
547600.00,0.011,0,0,357.666,1739.6873,4.864
547800.00,-0.015,0,0,408.306,1972.1179,4.83
548000.00,-0.012,0,0,413.765,1996.0024,4.824
548200.00,0.018,0,0,360.195,1751.2681,4.862
548400.00,0.007,0,0,412.35,1989.1764,4.824
548600.00,-0.019,0,0,408.204,1971.6254,4.83
548800.00,-0.012,0,0,356.868,1736.5198,4.866
549000.00,0.003,0,0,413.868,1997.3271,4.826
549200.00,0.01,0,0,360.867,1754.5354,4.862
549400.00,0.015,0,0,597.874,2811.2039,4.702
549600.00,0.004,0,0,357.461,1739.4053,4.866
549800.00,0.011,0,0,406.649,1964.9279,4.832
550000.00,-0.013,0,0,410.05,1978.9014,4.826
550200.00,-0.007,0,0,357.184,1736.6285,4.862
550400.00,0.008,0,0,408.384,1973.3114,4.832
550600.00,-0.014,0,0,409.52,1977.9816,4.83
550800.00,0,0,0,357.467,1740.1494,4.868
551000.00,0.001,0,0,411.901,1987.0104,4.824
551200.00,0.007,0,0,408.187,1971.5432,4.83
551400.00,0.001,0,0,357.048,1738.1097,4.868
551600.00,-0.017,0,0,408.619,1972.8125,4.828
551800.00,-0.015,0,0,414.501,2000.382,4.826
552000.00,-0.01,0,0,357.77,1740.1931,4.864
552200.00,0.006,0,0,408.767,1975.162,4.832
552400.00,0.002,0,0,356.924,1736.7924,4.866
552600.00,0.006,0,0,412.309,1988.9785,4.824
552800.00,-0.003,0,0,585.445,2752.7625,4.702
553000.00,0.005,0,0,358.634,1743.6785,4.862
553200.00,0,0,0,412.773,1991.2169,4.824
553400.00,0.008,0,0,357.993,1741.278,4.864
553600.00,0.017,0,0,410.305,1980.132,4.826
553800.00,0.008,0,0,408.19,1971.5577,4.83
554000.00,0.014,0,0,401.082,1938.8304,4.834
554200.00,0.007,0,0,412.904,1993.5005,4.828
554400.00,0.017,0,0,424.912,2048.0759,4.82
554600.00,0.011,0,0,359.554,1748.1515,4.862
554800.00,-0.008,0,0,413.46,1994.531,4.824
555000.00,0.012,0,0,411.971,1988.1721,4.826
555200.00,-0.003,0,0,358.276,1741.9379,4.862
555400.00,0,0,0,408.059,1971.741,4.832
555600.00,-0.022,0,0,356.839,1735.6648,4.864
555800.00,-0.003,0,0,409.128,1975.27,4.828
556000.00,0.015,0,0,420.543,2027.0173,4.82
556200.00,-0.012,0,0,449.187,2156.0977,4.8
556400.00,0.003,0,0,413.052,1992.5629,4.824
556600.00,0.004,0,0,403.871,1952.3125,4.834
556800.00,0,0,0,397.545,1923.3228,4.838
557000.00,0,0,0,408.52,1973.9685,4.832
557200.00,0.013,0,0,417.973,2014.6299,4.82
557400.00,0.002,0,0,357.085,1736.8613,4.864
557600.00,-0.002,0,0,412.333,1990.7438,4.828
557800.00,-0.012,0,0,357.504,1739.6145,4.866
558000.00,0.021,0,0,410.643,1982.5845,4.828
558200.00,-0.008,0,0,418.232,2018.3877,4.826
558400.00,0,0,0,357.578,1739.9746,4.866
558600.00,0.003,0,0,408.002,1969.0178,4.826
558800.00,0,0,0,411.025,1984.4287,4.828
559000.00,-0.003,0,0,357.171,1737.9941,4.866
559200.00,-0.021,0,0,411.482,1987.458,4.83
559400.00,0.015,0,0,408.903,1974.1838,4.828
559600.00,-0.014,0,0,449.947,2160.6455,4.802
559800.00,0.022,0,0,408.343,1972.2966,4.83
560000.00,0.005,0,0,357.067,1737.488,4.866
560200.00,0.004,0,0,411.744,1987.9,4.828
560400.00,0.007,0,0,358.221,1741.6705,4.862
560600.00,-0.015,0,0,408.165,1970.6207,4.828
560800.00,0.003,0,0,411.473,1987.4146,4.83
561000.00,-0.004,0,0,357.382,1738.3059,4.864
561200.00,0.004,0,0,408.218,1972.5093,4.832
561400.00,0,0,0,406.145,1960.868,4.828
561600.00,-0.028,0,0,357.026,1737.2886,4.866
561800.00,-0.007,0,0,409.159,1974.6014,4.826
562000.00,-0.01,0,0,410.981,1985.0381,4.83
562200.00,-0.013,0,0,356.466,1733.8506,4.864
562400.00,-0.008,0,0,408.875,1974.0486,4.828
562600.00,-0.008,0,0,413.059,1992.5966,4.824
562800.00,-0.016,0,0,356.817,1736.2715,4.866
563000.00,-0.002,0,0,471.445,2256.3357,4.786
563200.00,0.015,0,0,357.293,1738.5878,4.866
563400.00,-0.009,0,0,409.772,1977.5598,4.826
563600.00,-0.014,0,0,408.616,1973.6152,4.83
563800.00,-0.01,0,0,356.977,1736.3361,4.864
564000.00,0,0,0,409.097,1974.3021,4.826
564200.00,0.009,0,0,357.15,1737.892,4.866
564400.00,0.006,0,0,405.777,1959.0914,4.828
564600.00,0.009,0,0,409.522,1977.9912,4.83
564800.00,-0.011,0,0,357.082,1737.561,4.866
565000.00,-0.002,0,0,450.002,2160.9097,4.802
565200.00,0.015,0,0,418.005,2016.4561,4.824
565400.00,0.017,0,0,357.544,1739.094,4.864
565600.00,0.012,0,0,406.581,1963.7861,4.83
565800.00,-0.001,0,0,449.775,2157.1208,4.796
566000.00,0.014,0,0,356.858,1735.7573,4.864
566200.00,0.017,0,0,421.177,2030.9155,4.822
566400.00,-0.011,0,0,449.289,2156.5874,4.8
566600.00,-0.012,0,0,411.124,1984.0845,4.826
566800.00,0.013,0,0,404.83,1954.5192,4.828
567000.00,0.01,0,0,357.208,1738.1742,4.866
567200.00,-0.031,0,0,408.392,1970.8999,4.826
567400.00,0.004,0,0,405.085,1957.3706,4.832
567600.00,-0.004,0,0,357.98,1741.2147,4.864
567800.00,0.013,0,0,409.281,1976.8273,4.83
568000.00,-0.011,0,0,414.908,2003.1758,4.828
568200.00,0.012,0,0,357.203,1737.4353,4.864
568400.00,0.024,0,0,412.551,1990.9712,4.826
568600.00,0.008,0,0,357.363,1738.9285,4.866
568800.00,0.001,0,0,410.971,1983.3462,4.826
569000.00,0,0,0,411.008,1982.7025,4.824
569200.00,0.019,0,0,357.443,1739.3176,4.866
569400.00,0.005,0,0,409.532,1976.4016,4.826
569600.00,0.003,0,0,408.434,1972.7361,4.83
569800.00,0.007,0,0,449.491,2158.4558,4.802
570000.00,0.007,0,0,603.217,2827.8813,4.688
570200.00,-0.015,0,0,359.066,1746.4971,4.864
570400.00,-0.014,0,0,411.786,1988.1029,4.828
570600.00,-0.006,0,0,382.328,1856.5847,4.856
570800.00,0.003,0,0,409.342,1976.3032,4.828
571000.00,0.007,0,0,405.739,1960.5309,4.832
571200.00,0.009,0,0,356.795,1736.8782,4.868
571400.00,-0.012,0,0,414.526,1999.6733,4.824
571600.00,-0.006,0,0,412.386,1991.8243,4.83
571800.00,0.012,0,0,357.382,1737.5912,4.862
572000.00,0.008,0,0,409.77,1978.3695,4.828
572200.00,0.009,0,0,409.663,1979.4915,4.832
572400.00,0.004,0,0,356.616,1735.2935,4.866
572600.00,0.017,0,0,412.457,1991.3424,4.828
572800.00,-0.003,0,0,403.9,1950.8369,4.83
573000.00,0,0,0,357.166,1737.2552,4.864
573200.00,0.011,0,0,449.795,2159.0161,4.8
573400.00,0.026,0,0,451.869,2169.875,4.802
573600.00,0.001,0,0,410.786,1982.4534,4.826
573800.00,-0.001,0,0,409.429,1978.3607,4.832
574000.00,-0.028,0,0,356.832,1737.0582,4.868
574200.00,0.006,0,0,409.523,1977.1771,4.828
574400.00,0.001,0,0,413.781,1996.0795,4.824
574600.00,0.012,0,0,357.624,1740.9136,4.868
574800.00,-0.02,0,0,408.938,1974.3527,4.828
575000.00,0.001,0,0,478.358,2281.7676,4.77
575200.00,0.013,0,0,357.019,1736.5404,4.864
575400.00,0.014,0,0,406.482,1963.308,4.83
575600.00,-0.009,0,0,357.309,1737.2363,4.862
575800.00,0.014,0,0,412.784,1993.7467,4.83
576000.00,-0.011,0,0,408,1970.64,4.83
576200.00,0.009,0,0,357.118,1737.022,4.864
576400.00,0.002,0,0,408.173,1971.4756,4.83
576600.00,0.003,0,0,409.333,1977.0784,4.83
576800.00,0.004,0,0,450.355,2161.7041,4.8
577000.00,-0.012,0,0,589.145,2768.9814,4.7
577200.00,0.004,0,0,359.931,1749.9845,4.862
577400.00,-0.015,0,0,415.788,2004.9297,4.822
577600.00,-0.004,0,0,357.086,1737.5806,4.866
577800.00,-0.017,0,0,414.225,1997.3929,4.822
578000.00,0.019,0,0,407.376,1969.2556,4.834
578200.00,0,0,0,357.678,1739.7457,4.864
578400.00,0.01,0,0,412.366,1989.2535,4.824
578600.00,0.013,0,0,413.641,1995.4041,4.824
578800.00,0.001,0,0,357.258,1738.4175,4.866
579000.00,-0.008,0,0,410.927,1983.9556,4.828
579200.00,-0.009,0,0,408.014,1970.7076,4.83
579400.00,0.019,0,0,357.517,1738.9626,4.864
579600.00,0.009,0,0,410.198,1982.8972,4.834
579800.00,0,0,0,370.659,1801.4028,4.86
580000.00,-0.009,0,0,413.436,1996.0691,4.828
580200.00,0.018,0,0,407.612,1969.5811,4.832
580400.00,0.016,0,0,449.1,2155.6802,4.8
580600.00,0.023,0,0,600.256,2822.4038,4.702
580800.00,0.016,0,0,359.22,1746.5276,4.862
581000.00,0,0,0,417.615,2015.41,4.826
581200.00,0.007,0,0,405.015,1957.0325,4.832
581400.00,-0.009,0,0,398.709,1928.1567,4.836
581600.00,0.006,0,0,412.6,1992.0328,4.828
581800.00,-0.002,0,0,413.23,1993.4215,4.824
582000.00,-0.009,0,0,356.961,1736.2583,4.864
582200.00,0.001,0,0,409.261,1975.9121,4.828
582400.00,-0.004,0,0,405.089,1959.0104,4.836
582600.00,-0.012,0,0,357.326,1739.4629,4.868
582800.00,0.003,0,0,409.466,1978.5397,4.832
583000.00,0.002,0,0,447.648,2153.187,4.81
583200.00,0.003,0,0,357.264,1737.0176,4.862
583400.00,0.012,0,0,411.897,1985.3436,4.82
583600.00,-0.009,0,0,358.012,1741.3702,4.864
583800.00,-0.014,0,0,407.721,1969.2925,4.83
584000.00,-0.002,0,0,358.61,1743.5618,4.862
584200.00,-0.005,0,0,460.766,2208.9121,4.794
584400.00,0.019,0,0,415.389,2004.6675,4.826
584600.00,0.001,0,0,365.526,1777.9185,4.864
584800.00,0.007,0,0,407.081,1967.0153,4.832
585000.00,0.008,0,0,406.553,1965.2773,4.834
585200.00,-0.003,0,0,356.889,1735.9081,4.864
585400.00,-0.011,0,0,410.374,1980.465,4.826
585600.00,0.011,0,0,409.091,1975.0914,4.828
585800.00,-0.003,0,0,356.845,1734.9803,4.862
586000.00,0,0,0,414.229,1999.0692,4.826
586200.00,-0.005,0,0,357.104,1737.6681,4.866
586400.00,0.016,0,0,408.466,1970.4399,4.824
586600.00,-0.018,0,0,410.774,1982.3954,4.826
586800.00,0.002,0,0,357.264,1738.4468,4.866
587000.00,-0.002,0,0,419.359,2020.4717,4.818
587200.00,0.011,0,0,407.832,1970.6442,4.832
587400.00,0.003,0,0,357.53,1739.0259,4.864
587600.00,0,0,0,412.621,1991.3091,4.826
587800.00,0.015,0,0,412.954,1992.0901,4.824
588000.00,0.01,0,0,357.03,1737.308,4.866
588200.00,0.004,0,0,408.622,1972.8271,4.828
588400.00,0.003,0,0,360.672,1754.3086,4.864
588600.00,0.025,0,0,408.593,1973.5042,4.83
588800.00,0.005,0,0,435.896,2101.8906,4.822
589000.00,-0.012,0,0,357.401,1739.1133,4.866
589200.00,0.003,0,0,410.6,1983.198,4.83
589400.00,-0.013,0,0,410.966,1984.1439,4.828
589600.00,0.014,0,0,358.044,1742.2422,4.866
589800.00,0,0,0,409.867,1978.0183,4.826
590000.00,-0.005,0,0,408.428,1971.8905,4.828
590200.00,0.019,0,0,356.84,1735.6697,4.864
590400.00,-0.019,0,0,414.821,2001.0966,4.824
590600.00,-0.006,0,0,450.981,2163.8066,4.798
590800.00,0.007,0,0,588.823,2767.468,4.7
591000.00,-0.004,0,0,365.547,1776.5585,4.86
591200.00,-0.013,0,0,408.111,1968.7274,4.824
591400.00,-0.015,0,0,412.221,1988.5541,4.824
591600.00,0.014,0,0,360.82,1754.3069,4.862
591800.00,0.02,0,0,414.023,1998.9031,4.828
592000.00,-0.007,0,0,406.783,1964.7618,4.83
592200.00,0.012,0,0,357.493,1740.276,4.868
592400.00,0.009,0,0,451.886,2168.1489,4.798
592600.00,0.002,0,0,412.678,1991.5841,4.826
592800.00,-0.003,0,0,357.192,1737.3817,4.864
593000.00,-0.012,0,0,405.083,1956.5509,4.83
593200.00,0,0,0,412.5,1991.55,4.828
593400.00,-0.009,0,0,356.915,1736.0345,4.864
593600.00,-0.008,0,0,408.798,1972.8593,4.826
593800.00,0.006,0,0,418.955,2021.8768,4.826
594000.00,0.026,0,0,357.156,1737.2068,4.864
594200.00,0.005,0,0,611.234,2866.6875,4.69
594400.00,-0.003,0,0,357.069,1736.7836,4.864
594600.00,0.025,0,0,412.348,1990.8162,4.828
594800.00,0.017,0,0,357.341,1737.392,4.862
595000.00,-0.009,0,0,410.139,1979.3309,4.826
595200.00,-0.02,0,0,405.671,1959.3909,4.83
595400.00,0,0,0,357.773,1741.639,4.868
595600.00,0.019,0,0,409.04,1974.8452,4.828
595800.00,0.002,0,0,407.226,1966.9016,4.83
596000.00,0.004,0,0,357.132,1737.09,4.864
596200.00,0.005,0,0,408.352,1971.5234,4.828
596400.00,0.002,0,0,409.056,1974.9224,4.828
596600.00,0.001,0,0,357.416,1738.4713,4.864
596800.00,0,0,0,410.858,1984.4441,4.83
597000.00,-0.017,0,0,357.78,1740.2418,4.864
597200.00,0.003,0,0,408.263,1971.0938,4.828
597400.00,-0.012,0,0,408.621,1972.8223,4.828
597600.00,-0.009,0,0,357.514,1738.9481,4.864
597800.00,0.005,0,0,404.622,1955.1334,4.832
598000.00,0.006,0,0,409.472,1978.5685,4.832
598200.00,-0.008,0,0,356.958,1736.2437,4.864
598400.00,0.002,0,0,409.884,1978.92,4.828
598600.00,0.022,0,0,409.242,1977.4573,4.832
598800.00,0.006,0,0,357.692,1740.5293,4.866
599000.00,-0.012,0,0,408.951,1975.2333,4.83
599200.00,0.013,0,0,356.871,1736.5343,4.866
599400.00,0,0,0,407.038,1965.9935,4.83
599600.00,-0.02,0,0,412.702,1992.5253,4.828
599800.00,0,0,0,356.883,1735.1652,4.862
600000.00,0,0,0,415.536,2005.3768,4.826
600200.00,-0.006,0,0,411.657,1988.3033,4.83
600400.00,0,0,0,357.761,1741.5804,4.868
600600.00,0.005,0,0,449.126,2154.9065,4.798
600800.00,-0.013,0,0,409.016,1975.5472,4.83
601000.00,-0.013,0,0,449.216,2157.1353,4.802
601200.00,0.003,0,0,411.674,1987.5621,4.828
601400.00,0.006,0,0,357.266,1737.0272,4.862
601600.00,-0.003,0,0,414.307,1999.4457,4.826
601800.00,-0.009,0,0,413.06,1985.9926,4.808
602000.00,-0.002,0,0,356.858,1737.1848,4.868
602200.00,-0.015,0,0,411.876,1989.3611,4.83
602400.00,-0.004,0,0,357.006,1737.9053,4.868
602600.00,0.012,0,0,415.331,2002.7261,4.822
602800.00,0.009,0,0,411.596,1988.0087,4.83
603000.00,-0.004,0,0,357.678,1740.4613,4.866
603200.00,0.012,0,0,408.82,1975.4182,4.832
603400.00,0.026,0,0,454.564,2180.0889,4.796
603600.00,-0.024,0,0,357.821,1741.1571,4.866
603800.00,-0.01,0,0,408.955,1973.6168,4.826
604000.00,0.013,0,0,409.4,1977.402,4.83
604200.00,0.016,0,0,357.049,1737.4005,4.866
604400.00,-0.003,0,0,608.362,2856.8679,4.696
604600.00,-0.009,0,0,357.326,1739.4629,4.868
604800.00,-0.001,0,0,409.083,1974.2347,4.826
605000.00,0.027,0,0,409.034,1975.6342,4.83
605200.00,0,0,0,357.455,1738.661,4.864
605400.00,0,0,0,404.024,1951.4358,4.83
605600.00,-0.012,0,0,357.301,1737.1974,4.862
605800.00,-0.015,0,0,409.227,1975.7479,4.828
606000.00,-0.008,0,0,408.745,1974.2383,4.83
606200.00,-0.018,0,0,357.802,1741.0646,4.866
606400.00,-0.014,0,0,409.93,1979.9618,4.83
606600.00,-0.017,0,0,410.745,1983.8983,4.83
606800.00,0.007,0,0,359.099,1746.6575,4.864
607000.00,0.001,0,0,411.439,1984.7816,4.824
607200.00,-0.012,0,0,408.354,1971.5332,4.828
607400.00,-0.004,0,0,357.094,1736.9052,4.864
607600.00,-0.032,0,0,412.533,1991.7094,4.828
607800.00,-0.009,0,0,449.364,2156.0486,4.798
608000.00,-0.017,0,0,409.094,1975.1058,4.828
608200.00,0,0,0,411.192,1985.235,4.828
608400.00,-0.01,0,0,357.038,1735.9187,4.862
608600.00,-0.003,0,0,410.082,1979.0558,4.826
608800.00,0.001,0,0,450.29,2163.1931,4.804
609000.00,0.018,0,0,357.124,1737.051,4.864
609200.00,0.01,0,0,409.415,1978.2932,4.832
609400.00,0,0,0,408.818,1973.7733,4.828
609600.00,-0.006,0,0,357.575,1739.2448,4.864
609800.00,0.003,0,0,404.59,1954.9788,4.832
610000.00,-0.039,0,0,357.075,1736.8127,4.864
610200.00,-0.004,0,0,410.822,1983.4486,4.828
610400.00,0.006,0,0,408.23,1971.751,4.83
610600.00,-0.004,0,0,356.877,1735.8497,4.864
610800.00,-0.002,0,0,405.145,1956.04,4.828
611000.00,0.011,0,0,405.071,1956.4929,4.83
611200.00,0,0,0,451.561,2167.4929,4.8
611400.00,0.019,0,0,406.729,1963.6876,4.828
611600.00,0.002,0,0,398.14,1925.4052,4.836
611800.00,0.023,0,0,408.047,1970.8669,4.83
612000.00,0.008,0,0,411.029,1983.626,4.826
612200.00,-0.002,0,0,359.419,1748.933,4.866
612400.00,0.001,0,0,410.148,1979.3744,4.826
612600.00,-0.01,0,0,365.411,1773.7051,4.854
612800.00,0.011,0,0,413.011,1993.1912,4.826
613000.00,-0.004,0,0,410.333,1981.0878,4.828
613200.00,-0.001,0,0,357.093,1736.9003,4.864
613400.00,0.026,0,0,404.557,1954.0103,4.83
613600.00,-0.003,0,0,409.629,1977.6888,4.828
613800.00,-0.025,0,0,360.543,1752.9601,4.862
614000.00,-0.017,0,0,407.403,1967.7566,4.83
614200.00,0,0,0,410.139,1979.3309,4.826
614400.00,0.008,0,0,357.575,1739.9601,4.866
614600.00,0.008,0,0,413.57,1995.0616,4.824
614800.00,-0.02,0,0,357.223,1737.5326,4.864
615000.00,-0.002,0,0,408.527,1972.3684,4.828
615200.00,-0.008,0,0,415.709,2005.3802,4.824
615400.00,-0.003,0,0,357.26,1737.7126,4.864
615600.00,0.011,0,0,410.415,1983.1252,4.832
615800.00,0.024,0,0,414.952,2000.8986,4.822
616000.00,-0.014,0,0,356.847,1737.1311,4.868
616200.00,0.012,0,0,409.492,1978.6653,4.832
616400.00,0.012,0,0,357.212,1738.9081,4.868
616600.00,-0.02,0,0,408.024,1969.1239,4.826
616800.00,-0.008,0,0,406.896,1965.3076,4.83
617000.00,-0.008,0,0,356.91,1736.7241,4.866
617200.00,0.007,0,0,412.2,1989.2773,4.826
617400.00,0.002,0,0,410.373,1981.2808,4.828
617600.00,0,0,0,359.908,1750.5924,4.864
617800.00,0,0,0,408.537,1971.5996,4.826
618000.00,0.01,0,0,590.473,2776.4043,4.702
618200.00,-0.008,0,0,357.391,1737.635,4.862
618400.00,0.011,0,0,409.389,1976.5302,4.828
618600.00,-0.004,0,0,362.526,1763.3264,4.864
618800.00,0.01,0,0,406.567,1962.0924,4.826
619000.00,-0.006,0,0,407.295,1966.4204,4.828
619200.00,0.019,0,0,357.761,1740.1494,4.864
619400.00,0.006,0,0,408.571,1972.5809,4.828
619600.00,0.023,0,0,413.286,1994.5184,4.826
619800.00,-0.004,0,0,398.236,1925.8693,4.836
620000.00,0,0,0,409.961,1978.4719,4.826
620200.00,-0.012,0,0,417.457,2013.8125,4.824
620400.00,0.006,0,0,356.909,1735.2915,4.862
620600.00,-0.006,0,0,410.176,1980.3297,4.828
620800.00,-0.009,0,0,357.137,1737.1143,4.864
621000.00,0,0,0,412.18,1988.3562,4.824
621200.00,0.009,0,0,415.492,2004.3334,4.824
621400.00,0.007,0,0,450.639,2162.166,4.798
621600.00,0.016,0,0,604.065,2837.8975,4.698
621800.00,0.005,0,0,356.876,1735.8448,4.864
622000.00,0.036,0,0,413.114,1992.8619,4.824
622200.00,0.002,0,0,412.061,1990.2546,4.83
622400.00,0,0,0,357.389,1738.3401,4.864
622600.00,0,0,0,411.629,1988.168,4.83
622800.00,-0.008,0,0,409.022,1975.5763,4.83
623000.00,-0.004,0,0,356.993,1736.4139,4.864
623200.00,0,0,0,409.614,1976.7974,4.826
623400.00,-0.012,0,0,411.724,1987.8035,4.828
623600.00,0.011,0,0,357.079,1736.8323,4.864
623800.00,-0.005,0,0,414.801,2001,4.824
624000.00,-0.013,0,0,357.467,1739.4346,4.866
624200.00,0.004,0,0,407.348,1967.4907,4.83
624400.00,-0.002,0,0,407.866,1968.3615,4.826
624600.00,0.006,0,0,356.604,1734.5219,4.864
624800.00,-0.016,0,0,409.001,1974.6569,4.828
625000.00,-0.015,0,0,361.17,1756.7308,4.864
625200.00,0.012,0,0,408.017,1970.722,4.83
625400.00,0.003,0,0,452.26,2178.0842,4.816
625600.00,-0.005,0,0,359.838,1749.5325,4.862
625800.00,0.015,0,0,406.018,1959.443,4.826
626000.00,0.002,0,0,408.523,1971.5321,4.826
626200.00,0.024,0,0,357.234,1738.3008,4.866
626400.00,0.001,0,0,408.289,1972.0359,4.83
626600.00,-0.012,0,0,408.314,1971.34,4.828
626800.00,0.007,0,0,357.056,1736.7203,4.864
627000.00,0.006,0,0,411.444,1987.2745,4.83
627200.00,-0.006,0,0,357.161,1737.2311,4.864
627400.00,0.001,0,0,411.711,1989.3875,4.832
627600.00,-0.003,0,0,405.515,1960.2596,4.834
627800.00,0,0,0,357.26,1738.4272,4.866
628000.00,0.006,0,0,449.068,2157.3225,4.804
628200.00,-0.002,0,0,414.517,1999.63,4.824
628400.00,0.004,0,0,358.167,1743.5569,4.868
628600.00,-0.007,0,0,415.285,2003.3348,4.824
628800.00,-0.02,0,0,410.015,1980.3724,4.83
629000.00,0.005,0,0,357.865,1740.6553,4.864
629200.00,0,0,0,407.786,1967.9753,4.826
629400.00,-0.008,0,0,411.205,1986.12,4.83
629600.00,0.009,0,0,356.865,1736.5051,4.866
629800.00,-0.01,0,0,409.378,1976.4769,4.828
630000.00,-0.021,0,0,356.52,1734.1132,4.864
630200.00,0.015,0,0,408.593,1971.8699,4.826
630400.00,-0.004,0,0,407.613,1967.9556,4.828
630600.00,0.001,0,0,357.722,1739.9597,4.864
630800.00,0.017,0,0,454.083,2177.7822,4.796
631000.00,-0.015,0,0,409.469,1977.7352,4.83
631200.00,-0.008,0,0,356.889,1735.9081,4.864
631400.00,0.013,0,0,407.191,1967.5469,4.832
631600.00,0.007,0,0,586.616,2741.8433,4.674
631800.00,-0.021,0,0,356.198,1732.547,4.864
632000.00,0.02,0,0,405.315,1957.6714,4.83
632200.00,0,0,0,357.222,1737.5277,4.864
632400.00,-0.006,0,0,409.856,1978.7848,4.828
632600.00,-0.031,0,0,411.238,1986.2795,4.83
632800.00,-0.009,0,0,357.049,1737.4005,4.866
633000.00,0.009,0,0,407.721,1970.1078,4.832
633200.00,-0.001,0,0,410.486,1980.1843,4.824
